{
  "resourceType": "Bundle",
  "type": "transaction",
  "entry": [
    {
      "fullUrl": "urn:uuid:4c551a62-9a73-457a-985b-201801791ef4",
      "resource": {
        "resourceType": "Organization",
        "name": "Central Hospital-312f3f38",
        "identifier": [
          {
            "system": "http://example.com/org",
            "value": "ORG-001-312f3f38"
          }
        ],
        "type": [
          {
            "coding": [
              {
                "system": "http://terminology.hl7.org/CodeSystem/organization-type",
                "code": "prov"
              }
            ]
          }
        ],
        "telecom": [
          {
            "system": "phone",
            "value": "555-0100"
          }
        ],
        "address": [
          {
            "line": [
              "100 Main St"
            ],
            "city": "Springfield",
            "state": "IL",
            "postalCode": "62701",
            "country": "US"
          }
        ]
      },
      "request": {
        "method": "POST",
        "url": "Organization"
      }
    },
    {
      "fullUrl": "urn:uuid:360c0916-613c-4628-8e6c-d36082314ea0",
      "resource": {
        "resourceType": "Organization",
        "name": "East Wing Lab-312f3f38",
        "identifier": [
          {
            "system": "http://example.com/org",
            "value": "ORG-002-312f3f38"
          }
        ],
        "type": [
          {
            "coding": [
              {
                "system": "http://terminology.hl7.org/CodeSystem/organization-type",
                "code": "dept"
              }
            ]
          }
        ]
      },
      "request": {
        "method": "POST",
        "url": "Organization"
      }
    },
    {
      "fullUrl": "urn:uuid:d20b7ddb-3481-4d46-a9e8-b83f6bd77391",
      "resource": {
        "resourceType": "Organization",
        "name": "Pharmacy Services-312f3f38",
        "identifier": [
          {
            "system": "http://example.com/org",
            "value": "ORG-003-312f3f38"
          }
        ]
      },
      "request": {
        "method": "POST",
        "url": "Organization"
      }
    },
    {
      "fullUrl": "urn:uuid:3c80191a-1e0d-49fb-b2d4-24f587b228ff",
      "resource": {
        "resourceType": "Organization",
        "name": "Insurance Corp-312f3f38",
        "identifier": [
          {
            "system": "http://example.com/org",
            "value": "ORG-004-312f3f38"
          }
        ],
        "type": [
          {
            "coding": [
              {
                "system": "http://terminology.hl7.org/CodeSystem/organization-type",
                "code": "ins"
              }
            ]
          }
        ]
      },
      "request": {
        "method": "POST",
        "url": "Organization"
      }
    },
    {
      "fullUrl": "urn:uuid:b4ca6e9e-02b0-465c-8c34-81131c9a000b",
      "resource": {
        "resourceType": "Organization",
        "name": "Specialty Clinic-312f3f38",
        "identifier": [
          {
            "system": "http://example.com/org",
            "value": "ORG-005-312f3f38"
          }
        ],
        "address": [
          {
            "line": [
              "200 Oak Ave"
            ],
            "city": "Shelbyville",
            "state": "IL",
            "postalCode": "62702",
            "country": "US"
          }
        ]
      },
      "request": {
        "method": "POST",
        "url": "Organization"
      }
    },
    {
      "fullUrl": "urn:uuid:052c8fab-2391-468c-945d-44f1e79331fc",
      "resource": {
        "resourceType": "Practitioner",
        "name": [
          {
            "family": "Smith-312f3f38",
            "given": [
              "John",
              "A"
            ],
            "prefix": [
              "Dr."
            ]
          }
        ],
        "identifier": [
          {
            "system": "http://example.com/npi",
            "value": "NPI-001-312f3f38"
          }
        ],
        "gender": "male",
        "birthDate": "1975-03-15",
        "telecom": [
          {
            "system": "email",
            "value": "john.smith-312f3f38@hospital.com"
          }
        ],
        "address": [
          {
            "line": [
              "100 Main St"
            ],
            "city": "Springfield",
            "state": "IL",
            "postalCode": "62701",
            "country": "US"
          }
        ]
      },
      "request": {
        "method": "POST",
        "url": "Practitioner"
      }
    },
    {
      "fullUrl": "urn:uuid:b3bd2394-75dd-41c9-81d6-8c8a36945119",
      "resource": {
        "resourceType": "Practitioner",
        "name": [
          {
            "family": "Johnson-312f3f38",
            "given": [
              "Emily"
            ]
          }
        ],
        "identifier": [
          {
            "system": "http://example.com/npi",
            "value": "NPI-002-312f3f38"
          }
        ],
        "gender": "female"
      },
      "request": {
        "method": "POST",
        "url": "Practitioner"
      }
    },
    {
      "fullUrl": "urn:uuid:919a101a-7d60-43a1-a16f-9ca5da187021",
      "resource": {
        "resourceType": "Practitioner",
        "name": [
          {
            "family": "Williams-312f3f38",
            "given": [
              "Robert"
            ]
          }
        ],
        "identifier": [
          {
            "system": "http://example.com/npi",
            "value": "NPI-003-312f3f38"
          }
        ],
        "gender": "male"
      },
      "request": {
        "method": "POST",
        "url": "Practitioner"
      }
    },
    {
      "fullUrl": "urn:uuid:dd4e2dac-710b-4128-b4a6-b8acdb576ca5",
      "resource": {
        "resourceType": "Practitioner",
        "name": [
          {
            "family": "Brown-312f3f38",
            "given": [
              "Sarah"
            ]
          }
        ],
        "identifier": [
          {
            "system": "http://example.com/npi",
            "value": "NPI-004-312f3f38"
          }
        ],
        "gender": "female"
      },
      "request": {
        "method": "POST",
        "url": "Practitioner"
      }
    },
    {
      "fullUrl": "urn:uuid:95de7e00-0548-43e4-9ed3-6d1eb75763ff",
      "resource": {
        "resourceType": "Practitioner",
        "name": [
          {
            "family": "Davis-312f3f38",
            "given": [
              "Michael",
              "J"
            ]
          }
        ],
        "identifier": [
          {
            "system": "http://example.com/npi",
            "value": "NPI-005-312f3f38"
          }
        ],
        "gender": "male",
        "telecom": [
          {
            "system": "phone",
            "value": "555-0200"
          },
          {
            "system": "email",
            "value": "michael.davis-312f3f38@hospital.com"
          }
        ]
      },
      "request": {
        "method": "POST",
        "url": "Practitioner"
      }
    },
    {
      "fullUrl": "urn:uuid:33787537-80f5-4846-8f4f-d7f8e2bdb1c5",
      "resource": {
        "resourceType": "PractitionerRole",
        "practitioner": {
          "reference": "urn:uuid:052c8fab-2391-468c-945d-44f1e79331fc"
        },
        "organization": {
          "reference": "urn:uuid:4c551a62-9a73-457a-985b-201801791ef4"
        },
        "code": [
          {
            "coding": [
              {
                "system": "http://snomed.info/sct",
                "code": "59058001",
                "display": "GP-312f3f38"
              }
            ]
          }
        ],
        "active": true
      },
      "request": {
        "method": "POST",
        "url": "PractitionerRole"
      }
    },
    {
      "fullUrl": "urn:uuid:139caf59-05aa-4c57-a1af-d25e6d982496",
      "resource": {
        "resourceType": "PractitionerRole",
        "practitioner": {
          "reference": "urn:uuid:b3bd2394-75dd-41c9-81d6-8c8a36945119"
        },
        "organization": {
          "reference": "urn:uuid:360c0916-613c-4628-8e6c-d36082314ea0"
        },
        "code": [
          {
            "coding": [
              {
                "system": "http://snomed.info/sct",
                "code": "61246008",
                "display": "Lab-312f3f38"
              }
            ]
          }
        ]
      },
      "request": {
        "method": "POST",
        "url": "PractitionerRole"
      }
    },
    {
      "fullUrl": "urn:uuid:76daed27-84e1-4d2d-8ee7-aa7ce48bd64d",
      "resource": {
        "resourceType": "PractitionerRole",
        "practitioner": {
          "reference": "urn:uuid:919a101a-7d60-43a1-a16f-9ca5da187021"
        },
        "organization": {
          "reference": "urn:uuid:4c551a62-9a73-457a-985b-201801791ef4"
        },
        "code": [
          {
            "coding": [
              {
                "system": "http://snomed.info/sct",
                "code": "304292004",
                "display": "Surgeon-312f3f38"
              }
            ]
          }
        ]
      },
      "request": {
        "method": "POST",
        "url": "PractitionerRole"
      }
    },
    {
      "fullUrl": "urn:uuid:90323955-e6d8-4500-b53e-b63a7ffbc4c0",
      "resource": {
        "resourceType": "PractitionerRole",
        "practitioner": {
          "reference": "urn:uuid:dd4e2dac-710b-4128-b4a6-b8acdb576ca5"
        },
        "organization": {
          "reference": "urn:uuid:d20b7ddb-3481-4d46-a9e8-b83f6bd77391"
        },
        "code": [
          {
            "coding": [
              {
                "system": "http://snomed.info/sct",
                "code": "46255001",
                "display": "Pharmacist-312f3f38"
              }
            ]
          }
        ]
      },
      "request": {
        "method": "POST",
        "url": "PractitionerRole"
      }
    },
    {
      "fullUrl": "urn:uuid:92c9e6ca-5919-43b0-bd40-0724625868da",
      "resource": {
        "resourceType": "PractitionerRole",
        "practitioner": {
          "reference": "urn:uuid:95de7e00-0548-43e4-9ed3-6d1eb75763ff"
        },
        "organization": {
          "reference": "urn:uuid:b4ca6e9e-02b0-465c-8c34-81131c9a000b"
        },
        "code": [
          {
            "coding": [
              {
                "system": "http://snomed.info/sct",
                "code": "309343006",
                "display": "Specialist-312f3f38"
              }
            ]
          }
        ]
      },
      "request": {
        "method": "POST",
        "url": "PractitionerRole"
      }
    },
    {
      "fullUrl": "urn:uuid:67f3dc7c-eff6-4f4b-9188-612bc109243e",
      "resource": {
        "resourceType": "Patient",
        "active": true,
        "gender": "male",
        "birthDate": "1985-06-15",
        "name": [
          {
            "use": "official",
            "family": "Doe-312f3f38",
            "given": [
              "John",
              "Michael"
            ]
          },
          {
            "use": "nickname",
            "given": [
              "Johnny"
            ]
          }
        ],
        "identifier": [
          {
            "system": "http://example.com/mrn",
            "value": "MRN-001-312f3f38"
          },
          {
            "system": "http://example.com/ssn",
            "value": "SSN-001-312f3f38"
          }
        ],
        "telecom": [
          {
            "system": "phone",
            "value": "555-1001",
            "use": "home"
          },
          {
            "system": "email",
            "value": "john.doe-312f3f38@example.com",
            "use": "work"
          }
        ],
        "address": [
          {
            "use": "home",
            "line": [
              "123 Elm St",
              "Apt 4B"
            ],
            "city": "Springfield",
            "state": "IL",
            "postalCode": "62701",
            "country": "US"
          }
        ],
        "managingOrganization": {
          "reference": "urn:uuid:4c551a62-9a73-457a-985b-201801791ef4"
        },
        "generalPractitioner": [
          {
            "reference": "urn:uuid:052c8fab-2391-468c-945d-44f1e79331fc"
          }
        ],
        "meta": {
          "tag": [
            {
              "system": "http://example.com/tags",
              "code": "vip-312f3f38"
            }
          ]
        },
        "maritalStatus": {
          "coding": [
            {
              "system": "http://terminology.hl7.org/CodeSystem/v3-MaritalStatus",
              "code": "M",
              "display": "Married"
            }
          ]
        },
        "communication": [
          {
            "language": {
              "coding": [
                {
                  "system": "urn:ietf:bcp:47",
                  "code": "en"
                }
              ]
            }
          }
        ]
      },
      "request": {
        "method": "POST",
        "url": "Patient"
      }
    },
    {
      "fullUrl": "urn:uuid:1d58917c-4050-4069-a935-93a7db8f908d",
      "resource": {
        "resourceType": "Patient",
        "active": true,
        "gender": "female",
        "birthDate": "1990-11-22",
        "name": [
          {
            "use": "official",
            "family": "Smith-312f3f38",
            "given": [
              "Jane",
              "Elizabeth"
            ]
          }
        ],
        "identifier": [
          {
            "system": "http://example.com/mrn",
            "value": "MRN-002-312f3f38"
          }
        ],
        "telecom": [
          {
            "system": "phone",
            "value": "555-1002"
          }
        ],
        "address": [
          {
            "use": "home",
            "line": [
              "456 Oak Ave"
            ],
            "city": "Chicago",
            "state": "IL",
            "postalCode": "60601",
            "country": "US"
          }
        ],
        "managingOrganization": {
          "reference": "urn:uuid:4c551a62-9a73-457a-985b-201801791ef4"
        }
      },
      "request": {
        "method": "POST",
        "url": "Patient"
      }
    },
    {
      "fullUrl": "urn:uuid:ecd4e167-52a9-47da-9a8b-b7d6f1ecd4ed",
      "resource": {
        "resourceType": "Patient",
        "active": true,
        "gender": "male",
        "birthDate": "1978-01-30",
        "name": [
          {
            "use": "official",
            "family": "Williams-312f3f38",
            "given": [
              "Robert"
            ]
          }
        ],
        "identifier": [
          {
            "system": "http://example.com/mrn",
            "value": "MRN-003-312f3f38"
          }
        ],
        "address": [
          {
            "line": [
              "789 Pine Rd"
            ],
            "city": "Shelbyville",
            "state": "IL",
            "postalCode": "62702",
            "country": "US"
          },
          {
            "use": "work",
            "line": [
              "100 Main St"
            ],
            "city": "Springfield",
            "state": "IL"
          }
        ],
        "generalPractitioner": [
          {
            "reference": "urn:uuid:919a101a-7d60-43a1-a16f-9ca5da187021"
          }
        ],
        "meta": {
          "tag": [
            {
              "system": "http://example.com/tags",
              "code": "urgent-312f3f38"
            },
            {
              "system": "http://example.com/tags",
              "code": "flagged-312f3f38"
            }
          ],
          "security": [
            {
              "system": "http://terminology.hl7.org/CodeSystem/v3-Confidentiality",
              "code": "R"
            }
          ]
        }
      },
      "request": {
        "method": "POST",
        "url": "Patient"
      }
    },
    {
      "fullUrl": "urn:uuid:af8b731d-4d68-4436-ae7b-933bab6596de",
      "resource": {
        "resourceType": "Patient",
        "active": false,
        "gender": "female",
        "birthDate": "2005-08-10",
        "name": [
          {
            "use": "official",
            "family": "Davis-312f3f38",
            "given": [
              "Alice"
            ]
          }
        ],
        "identifier": [
          {
            "system": "http://example.com/mrn",
            "value": "MRN-004-312f3f38"
          }
        ],
        "deceasedBoolean": false
      },
      "request": {
        "method": "POST",
        "url": "Patient"
      }
    },
    {
      "fullUrl": "urn:uuid:6156c6eb-2830-426b-9c7b-e4f6987d7514",
      "resource": {
        "resourceType": "Patient",
        "active": true,
        "gender": "other",
        "birthDate": "2000-03-01",
        "name": [
          {
            "use": "official",
            "family": "Garcia-312f3f38",
            "given": [
              "Alex",
              "M"
            ]
          }
        ],
        "identifier": [
          {
            "system": "http://example.com/mrn",
            "value": "MRN-005-312f3f38"
          }
        ],
        "telecom": [
          {
            "system": "email",
            "value": "alex.garcia-312f3f38@example.com"
          }
        ]
      },
      "request": {
        "method": "POST",
        "url": "Patient"
      }
    },
    {
      "fullUrl": "urn:uuid:f325eb40-7f87-451b-a7c7-b00ab149c6ef",
      "resource": {
        "resourceType": "Patient",
        "active": true,
        "gender": "male",
        "birthDate": "1960-12-25",
        "name": [
          {
            "use": "official",
            "family": "Wilson-312f3f38",
            "given": [
              "George"
            ]
          }
        ],
        "identifier": [
          {
            "system": "http://example.com/mrn",
            "value": "MRN-006-312f3f38"
          }
        ],
        "deceasedDateTime": "2025-01-15T10:30:00Z"
      },
      "request": {
        "method": "POST",
        "url": "Patient"
      }
    },
    {
      "fullUrl": "urn:uuid:95eb211b-4d8c-441e-80fc-ff7ae70bf1f2",
      "resource": {
        "resourceType": "Patient",
        "active": true,
        "gender": "female",
        "birthDate": "1995-07-04",
        "name": [
          {
            "use": "official",
            "family": "Martinez-312f3f38",
            "given": [
              "Sofia",
              "Isabella"
            ]
          },
          {
            "use": "maiden",
            "family": "Lopez-312f3f38"
          }
        ],
        "identifier": [
          {
            "system": "http://example.com/mrn",
            "value": "MRN-007-312f3f38"
          },
          {
            "system": "http://example.com/passport",
            "value": "PP-007-312f3f38"
          }
        ],
        "telecom": [
          {
            "system": "phone",
            "value": "555-1007",
            "use": "mobile"
          },
          {
            "system": "phone",
            "value": "555-1008",
            "use": "home"
          },
          {
            "system": "email",
            "value": "sofia-312f3f38@example.com"
          }
        ],
        "address": [
          {
            "use": "home",
            "line": [
              "1000 Maple Dr"
            ],
            "city": "Capital City",
            "state": "CA",
            "postalCode": "90001",
            "country": "US"
          },
          {
            "use": "temp",
            "city": "TempCity",
            "state": "NY"
          }
        ],
        "contact": [
          {
            "relationship": [
              {
                "coding": [
                  {
                    "system": "http://terminology.hl7.org/CodeSystem/v2-0131",
                    "code": "N"
                  }
                ]
              }
            ],
            "name": {
              "family": "EmergencyContact-312f3f38",
              "given": [
                "Carlos"
              ]
            },
            "telecom": [
              {
                "system": "phone",
                "value": "555-9999"
              }
            ]
          }
        ]
      },
      "request": {
        "method": "POST",
        "url": "Patient"
      }
    },
    {
      "fullUrl": "urn:uuid:4dc2b03f-20d1-41c5-b934-4b982a573f8f",
      "resource": {
        "resourceType": "Encounter",
        "status": "finished",
        "class": {
          "system": "http://terminology.hl7.org/CodeSystem/v3-ActCode",
          "code": "AMB",
          "display": "Ambulatory-312f3f38"
        },
        "subject": {
          "reference": "urn:uuid:67f3dc7c-eff6-4f4b-9188-612bc109243e"
        },
        "serviceProvider": {
          "reference": "urn:uuid:4c551a62-9a73-457a-985b-201801791ef4"
        },
        "participant": [
          {
            "individual": {
              "reference": "urn:uuid:052c8fab-2391-468c-945d-44f1e79331fc"
            }
          }
        ],
        "period": {
          "start": "2025-01-10T08:00:00Z",
          "end": "2025-01-10T09:00:00Z"
        },
        "type": [
          {
            "coding": [
              {
                "system": "http://snomed.info/sct",
                "code": "308335008",
                "display": "OPD-312f3f38"
              }
            ]
          }
        ]
      },
      "request": {
        "method": "POST",
        "url": "Encounter"
      }
    },
    {
      "fullUrl": "urn:uuid:f65e12f4-0145-4627-bff2-b2a6fa16ae9c",
      "resource": {
        "resourceType": "Encounter",
        "status": "finished",
        "class": {
          "system": "http://terminology.hl7.org/CodeSystem/v3-ActCode",
          "code": "IMP"
        },
        "subject": {
          "reference": "urn:uuid:67f3dc7c-eff6-4f4b-9188-612bc109243e"
        },
        "serviceProvider": {
          "reference": "urn:uuid:4c551a62-9a73-457a-985b-201801791ef4"
        },
        "period": {
          "start": "2025-02-01T10:00:00Z",
          "end": "2025-02-05T14:00:00Z"
        }
      },
      "request": {
        "method": "POST",
        "url": "Encounter"
      }
    },
    {
      "fullUrl": "urn:uuid:062135fa-e2dc-459c-8122-480accfa1779",
      "resource": {
        "resourceType": "Encounter",
        "status": "finished",
        "class": {
          "system": "http://terminology.hl7.org/CodeSystem/v3-ActCode",
          "code": "AMB"
        },
        "subject": {
          "reference": "urn:uuid:1d58917c-4050-4069-a935-93a7db8f908d"
        },
        "serviceProvider": {
          "reference": "urn:uuid:4c551a62-9a73-457a-985b-201801791ef4"
        },
        "participant": [
          {
            "individual": {
              "reference": "urn:uuid:b3bd2394-75dd-41c9-81d6-8c8a36945119"
            }
          }
        ],
        "period": {
          "start": "2025-03-15T14:00:00Z"
        }
      },
      "request": {
        "method": "POST",
        "url": "Encounter"
      }
    },
    {
      "fullUrl": "urn:uuid:eb952283-64b8-4295-9e30-c1471a435dd6",
      "resource": {
        "resourceType": "Encounter",
        "status": "in-progress",
        "class": {
          "system": "http://terminology.hl7.org/CodeSystem/v3-ActCode",
          "code": "EMER"
        },
        "subject": {
          "reference": "urn:uuid:ecd4e167-52a9-47da-9a8b-b7d6f1ecd4ed"
        },
        "serviceProvider": {
          "reference": "urn:uuid:4c551a62-9a73-457a-985b-201801791ef4"
        },
        "period": {
          "start": "2026-02-25T10:00:00Z"
        }
      },
      "request": {
        "method": "POST",
        "url": "Encounter"
      }
    },
    {
      "fullUrl": "urn:uuid:dbadf9cb-12ae-4b9f-801b-6826b05ac201",
      "resource": {
        "resourceType": "Encounter",
        "status": "planned",
        "class": {
          "system": "http://terminology.hl7.org/CodeSystem/v3-ActCode",
          "code": "AMB"
        },
        "subject": {
          "reference": "urn:uuid:af8b731d-4d68-4436-ae7b-933bab6596de"
        },
        "period": {
          "start": "2026-03-01T09:00:00Z"
        }
      },
      "request": {
        "method": "POST",
        "url": "Encounter"
      }
    },
    {
      "fullUrl": "urn:uuid:b0791311-5a13-4439-b790-265f58e52720",
      "resource": {
        "resourceType": "Encounter",
        "status": "finished",
        "class": {
          "system": "http://terminology.hl7.org/CodeSystem/v3-ActCode",
          "code": "AMB"
        },
        "subject": {
          "reference": "urn:uuid:95eb211b-4d8c-441e-80fc-ff7ae70bf1f2"
        },
        "serviceProvider": {
          "reference": "urn:uuid:b4ca6e9e-02b0-465c-8c34-81131c9a000b"
        },
        "participant": [
          {
            "individual": {
              "reference": "urn:uuid:95de7e00-0548-43e4-9ed3-6d1eb75763ff"
            }
          }
        ],
        "period": {
          "start": "2025-06-01T11:00:00Z",
          "end": "2025-06-01T12:00:00Z"
        }
      },
      "request": {
        "method": "POST",
        "url": "Encounter"
      }
    },
    {
      "fullUrl": "urn:uuid:7f2a59b9-67a3-4053-916e-7c7b91eb6f55",
      "resource": {
        "resourceType": "Condition",
        "clinicalStatus": {
          "coding": [
            {
              "system": "http://terminology.hl7.org/CodeSystem/condition-clinical",
              "code": "active"
            }
          ]
        },
        "verificationStatus": {
          "coding": [
            {
              "system": "http://terminology.hl7.org/CodeSystem/condition-ver-status",
              "code": "confirmed"
            }
          ]
        },
        "code": {
          "coding": [
            {
              "system": "http://snomed.info/sct",
              "code": "44054006",
              "display": "Type2DM-312f3f38"
            }
          ]
        },
        "subject": {
          "reference": "urn:uuid:67f3dc7c-eff6-4f4b-9188-612bc109243e"
        },
        "encounter": {
          "reference": "urn:uuid:4dc2b03f-20d1-41c5-b934-4b982a573f8f"
        },
        "onsetDateTime": "2020-01-01"
      },
      "request": {
        "method": "POST",
        "url": "Condition"
      }
    },
    {
      "fullUrl": "urn:uuid:1380a05c-7371-4405-8e31-e5650f1ea194",
      "resource": {
        "resourceType": "Condition",
        "clinicalStatus": {
          "coding": [
            {
              "system": "http://terminology.hl7.org/CodeSystem/condition-clinical",
              "code": "active"
            }
          ]
        },
        "verificationStatus": {
          "coding": [
            {
              "system": "http://terminology.hl7.org/CodeSystem/condition-ver-status",
              "code": "confirmed"
            }
          ]
        },
        "code": {
          "coding": [
            {
              "system": "http://snomed.info/sct",
              "code": "38341003",
              "display": "Hypertension-312f3f38"
            }
          ]
        },
        "subject": {
          "reference": "urn:uuid:67f3dc7c-eff6-4f4b-9188-612bc109243e"
        },
        "onsetDateTime": "2018-06-15"
      },
      "request": {
        "method": "POST",
        "url": "Condition"
      }
    },
    {
      "fullUrl": "urn:uuid:56ee9ef7-497b-4039-beba-10656342ef7a",
      "resource": {
        "resourceType": "Condition",
        "clinicalStatus": {
          "coding": [
            {
              "system": "http://terminology.hl7.org/CodeSystem/condition-clinical",
              "code": "resolved"
            }
          ]
        },
        "code": {
          "coding": [
            {
              "system": "http://snomed.info/sct",
              "code": "195662009",
              "display": "Pneumonia-312f3f38"
            }
          ]
        },
        "subject": {
          "reference": "urn:uuid:1d58917c-4050-4069-a935-93a7db8f908d"
        },
        "encounter": {
          "reference": "urn:uuid:062135fa-e2dc-459c-8122-480accfa1779"
        },
        "onsetDateTime": "2025-03-10",
        "abatementDateTime": "2025-03-25"
      },
      "request": {
        "method": "POST",
        "url": "Condition"
      }
    },
    {
      "fullUrl": "urn:uuid:436ec952-b784-4076-a37f-67de127c1647",
      "resource": {
        "resourceType": "Condition",
        "clinicalStatus": {
          "coding": [
            {
              "system": "http://terminology.hl7.org/CodeSystem/condition-clinical",
              "code": "active"
            }
          ]
        },
        "code": {
          "coding": [
            {
              "system": "http://snomed.info/sct",
              "code": "73211009",
              "display": "DiabetesI-312f3f38"
            }
          ]
        },
        "subject": {
          "reference": "urn:uuid:ecd4e167-52a9-47da-9a8b-b7d6f1ecd4ed"
        },
        "onsetDateTime": "2010-05-01"
      },
      "request": {
        "method": "POST",
        "url": "Condition"
      }
    },
    {
      "fullUrl": "urn:uuid:a5afc25c-e027-42fd-a366-11225da3efe1",
      "resource": {
        "resourceType": "Condition",
        "clinicalStatus": {
          "coding": [
            {
              "system": "http://terminology.hl7.org/CodeSystem/condition-clinical",
              "code": "active"
            }
          ]
        },
        "code": {
          "coding": [
            {
              "system": "http://snomed.info/sct",
              "code": "195967001",
              "display": "Asthma-312f3f38"
            }
          ]
        },
        "subject": {
          "reference": "urn:uuid:95eb211b-4d8c-441e-80fc-ff7ae70bf1f2"
        },
        "encounter": {
          "reference": "urn:uuid:b0791311-5a13-4439-b790-265f58e52720"
        },
        "onsetDateTime": "2015-08-20"
      },
      "request": {
        "method": "POST",
        "url": "Condition"
      }
    },
    {
      "fullUrl": "urn:uuid:a5048e16-2c6b-4f33-9621-1e94f0e28db9",
      "resource": {
        "resourceType": "Observation",
        "status": "final",
        "code": {
          "coding": [
            {
              "system": "http://loinc.org",
              "code": "29463-7",
              "display": "BodyWeight-312f3f38"
            }
          ]
        },
        "subject": {
          "reference": "urn:uuid:67f3dc7c-eff6-4f4b-9188-612bc109243e"
        },
        "encounter": {
          "reference": "urn:uuid:4dc2b03f-20d1-41c5-b934-4b982a573f8f"
        },
        "valueQuantity": {
          "value": 75.5,
          "unit": "kg",
          "system": "http://unitsofmeasure.org",
          "code": "kg"
        },
        "effectiveDateTime": "2025-01-10T08:30:00Z",
        "category": [
          {
            "coding": [
              {
                "system": "http://terminology.hl7.org/CodeSystem/observation-category",
                "code": "vital-signs"
              }
            ]
          }
        ]
      },
      "request": {
        "method": "POST",
        "url": "Observation"
      }
    },
    {
      "fullUrl": "urn:uuid:b11556d0-3e18-43ed-bb6d-15f91e66264a",
      "resource": {
        "resourceType": "Observation",
        "status": "final",
        "code": {
          "coding": [
            {
              "system": "http://loinc.org",
              "code": "8867-4",
              "display": "HeartRate-312f3f38"
            }
          ]
        },
        "subject": {
          "reference": "urn:uuid:67f3dc7c-eff6-4f4b-9188-612bc109243e"
        },
        "encounter": {
          "reference": "urn:uuid:4dc2b03f-20d1-41c5-b934-4b982a573f8f"
        },
        "valueQuantity": {
          "value": 72,
          "unit": "/min",
          "system": "http://unitsofmeasure.org",
          "code": "/min"
        },
        "effectiveDateTime": "2025-01-10T08:30:00Z"
      },
      "request": {
        "method": "POST",
        "url": "Observation"
      }
    },
    {
      "fullUrl": "urn:uuid:f022019a-8aab-49f3-960a-e57b60444fd9",
      "resource": {
        "resourceType": "Observation",
        "status": "final",
        "code": {
          "coding": [
            {
              "system": "http://loinc.org",
              "code": "85354-9",
              "display": "BP-312f3f38"
            }
          ]
        },
        "subject": {
          "reference": "urn:uuid:67f3dc7c-eff6-4f4b-9188-612bc109243e"
        },
        "encounter": {
          "reference": "urn:uuid:f65e12f4-0145-4627-bff2-b2a6fa16ae9c"
        },
        "component": [
          {
            "code": {
              "coding": [
                {
                  "system": "http://loinc.org",
                  "code": "8480-6"
                }
              ]
            },
            "valueQuantity": {
              "value": 120,
              "unit": "mmHg"
            }
          },
          {
            "code": {
              "coding": [
                {
                  "system": "http://loinc.org",
                  "code": "8462-4"
                }
              ]
            },
            "valueQuantity": {
              "value": 80,
              "unit": "mmHg"
            }
          }
        ],
        "effectiveDateTime": "2025-02-01T10:30:00Z"
      },
      "request": {
        "method": "POST",
        "url": "Observation"
      }
    },
    {
      "fullUrl": "urn:uuid:c34d9440-4d64-454c-825a-7f029fa56717",
      "resource": {
        "resourceType": "Observation",
        "status": "final",
        "code": {
          "coding": [
            {
              "system": "http://loinc.org",
              "code": "2339-0",
              "display": "Glucose-312f3f38"
            }
          ]
        },
        "subject": {
          "reference": "urn:uuid:1d58917c-4050-4069-a935-93a7db8f908d"
        },
        "encounter": {
          "reference": "urn:uuid:062135fa-e2dc-459c-8122-480accfa1779"
        },
        "valueQuantity": {
          "value": 95,
          "unit": "mg/dL"
        },
        "effectiveDateTime": "2025-03-15T14:30:00Z",
        "interpretation": [
          {
            "coding": [
              {
                "system": "http://terminology.hl7.org/CodeSystem/v3-ObservationInterpretation",
                "code": "N",
                "display": "Normal"
              }
            ]
          }
        ]
      },
      "request": {
        "method": "POST",
        "url": "Observation"
      }
    },
    {
      "fullUrl": "urn:uuid:c7186447-1dd3-4807-a57b-950b9f39c2cf",
      "resource": {
        "resourceType": "Observation",
        "status": "final",
        "code": {
          "coding": [
            {
              "system": "http://loinc.org",
              "code": "718-7",
              "display": "Hemoglobin-312f3f38"
            }
          ]
        },
        "subject": {
          "reference": "urn:uuid:ecd4e167-52a9-47da-9a8b-b7d6f1ecd4ed"
        },
        "valueQuantity": {
          "value": 14.2,
          "unit": "g/dL"
        },
        "effectiveDateTime": "2025-04-01"
      },
      "request": {
        "method": "POST",
        "url": "Observation"
      }
    },
    {
      "fullUrl": "urn:uuid:f0282887-7542-48ba-8d9c-ebe30fd05eb3",
      "resource": {
        "resourceType": "Observation",
        "status": "preliminary",
        "code": {
          "coding": [
            {
              "system": "http://loinc.org",
              "code": "6690-2",
              "display": "WBC-312f3f38"
            }
          ]
        },
        "subject": {
          "reference": "urn:uuid:ecd4e167-52a9-47da-9a8b-b7d6f1ecd4ed"
        },
        "encounter": {
          "reference": "urn:uuid:eb952283-64b8-4295-9e30-c1471a435dd6"
        },
        "valueQuantity": {
          "value": 8500,
          "unit": "/uL"
        },
        "effectiveDateTime": "2026-02-25T10:30:00Z"
      },
      "request": {
        "method": "POST",
        "url": "Observation"
      }
    },
    {
      "fullUrl": "urn:uuid:71bd0d20-b3a9-4e7a-9940-3a66620d06e4",
      "resource": {
        "resourceType": "Observation",
        "status": "final",
        "code": {
          "coding": [
            {
              "system": "http://loinc.org",
              "code": "39156-5",
              "display": "BMI-312f3f38"
            }
          ]
        },
        "subject": {
          "reference": "urn:uuid:95eb211b-4d8c-441e-80fc-ff7ae70bf1f2"
        },
        "encounter": {
          "reference": "urn:uuid:b0791311-5a13-4439-b790-265f58e52720"
        },
        "valueQuantity": {
          "value": 22.1,
          "unit": "kg/m2"
        },
        "effectiveDateTime": "2025-06-01T11:30:00Z"
      },
      "request": {
        "method": "POST",
        "url": "Observation"
      }
    },
    {
      "fullUrl": "urn:uuid:6e2486cc-aacc-4c37-99fe-fdc7ca31796e",
      "resource": {
        "resourceType": "Observation",
        "status": "final",
        "code": {
          "coding": [
            {
              "system": "http://loinc.org",
              "code": "8310-5",
              "display": "BodyTemp-312f3f38"
            }
          ]
        },
        "subject": {
          "reference": "urn:uuid:95eb211b-4d8c-441e-80fc-ff7ae70bf1f2"
        },
        "valueQuantity": {
          "value": 37.2,
          "unit": "Cel"
        },
        "effectiveDateTime": "2025-06-01T11:35:00Z"
      },
      "request": {
        "method": "POST",
        "url": "Observation"
      }
    },
    {
      "fullUrl": "urn:uuid:571ab649-a761-4239-aba1-7ff120b1eca0",
      "resource": {
        "resourceType": "DiagnosticReport",
        "status": "final",
        "code": {
          "coding": [
            {
              "system": "http://loinc.org",
              "code": "58410-2",
              "display": "CBC-312f3f38"
            }
          ]
        },
        "subject": {
          "reference": "urn:uuid:67f3dc7c-eff6-4f4b-9188-612bc109243e"
        },
        "encounter": {
          "reference": "urn:uuid:4dc2b03f-20d1-41c5-b934-4b982a573f8f"
        },
        "result": [
          {
            "reference": "urn:uuid:a5048e16-2c6b-4f33-9621-1e94f0e28db9"
          },
          {
            "reference": "urn:uuid:b11556d0-3e18-43ed-bb6d-15f91e66264a"
          }
        ],
        "effectiveDateTime": "2025-01-10T09:00:00Z",
        "issued": "2025-01-10T10:00:00Z"
      },
      "request": {
        "method": "POST",
        "url": "DiagnosticReport"
      }
    },
    {
      "fullUrl": "urn:uuid:e675d352-9b23-410d-8af6-72ebae5fbfb7",
      "resource": {
        "resourceType": "DiagnosticReport",
        "status": "final",
        "code": {
          "coding": [
            {
              "system": "http://loinc.org",
              "code": "24323-8",
              "display": "CMP-312f3f38"
            }
          ]
        },
        "subject": {
          "reference": "urn:uuid:67f3dc7c-eff6-4f4b-9188-612bc109243e"
        },
        "encounter": {
          "reference": "urn:uuid:f65e12f4-0145-4627-bff2-b2a6fa16ae9c"
        },
        "result": [
          {
            "reference": "urn:uuid:f022019a-8aab-49f3-960a-e57b60444fd9"
          }
        ],
        "effectiveDateTime": "2025-02-01T11:00:00Z"
      },
      "request": {
        "method": "POST",
        "url": "DiagnosticReport"
      }
    },
    {
      "fullUrl": "urn:uuid:929b99cf-b192-4a57-9a48-93cba9d515cf",
      "resource": {
        "resourceType": "DiagnosticReport",
        "status": "final",
        "code": {
          "coding": [
            {
              "system": "http://loinc.org",
              "code": "2339-0",
              "display": "GlucoseReport-312f3f38"
            }
          ]
        },
        "subject": {
          "reference": "urn:uuid:1d58917c-4050-4069-a935-93a7db8f908d"
        },
        "result": [
          {
            "reference": "urn:uuid:c34d9440-4d64-454c-825a-7f029fa56717"
          }
        ],
        "effectiveDateTime": "2025-03-15T15:00:00Z"
      },
      "request": {
        "method": "POST",
        "url": "DiagnosticReport"
      }
    },
    {
      "fullUrl": "urn:uuid:c7f68cd7-e579-4af7-9d65-32598475c88c",
      "resource": {
        "resourceType": "DiagnosticReport",
        "status": "preliminary",
        "code": {
          "coding": [
            {
              "system": "http://loinc.org",
              "code": "58410-2",
              "display": "CBC2-312f3f38"
            }
          ]
        },
        "subject": {
          "reference": "urn:uuid:ecd4e167-52a9-47da-9a8b-b7d6f1ecd4ed"
        },
        "result": [
          {
            "reference": "urn:uuid:c7186447-1dd3-4807-a57b-950b9f39c2cf"
          },
          {
            "reference": "urn:uuid:f0282887-7542-48ba-8d9c-ebe30fd05eb3"
          }
        ],
        "effectiveDateTime": "2026-02-25T11:00:00Z"
      },
      "request": {
        "method": "POST",
        "url": "DiagnosticReport"
      }
    },
    {
      "fullUrl": "urn:uuid:c9c31480-54cb-460d-a9e6-a7caf55e2512",
      "resource": {
        "resourceType": "DiagnosticReport",
        "status": "final",
        "code": {
          "coding": [
            {
              "system": "http://loinc.org",
              "code": "55399-0",
              "display": "Vitals-312f3f38"
            }
          ]
        },
        "subject": {
          "reference": "urn:uuid:95eb211b-4d8c-441e-80fc-ff7ae70bf1f2"
        },
        "encounter": {
          "reference": "urn:uuid:b0791311-5a13-4439-b790-265f58e52720"
        },
        "result": [
          {
            "reference": "urn:uuid:71bd0d20-b3a9-4e7a-9940-3a66620d06e4"
          },
          {
            "reference": "urn:uuid:6e2486cc-aacc-4c37-99fe-fdc7ca31796e"
          }
        ],
        "effectiveDateTime": "2025-06-01T12:00:00Z"
      },
      "request": {
        "method": "POST",
        "url": "DiagnosticReport"
      }
    },
    {
      "fullUrl": "urn:uuid:7c6bbe04-5f4b-4190-ae34-8eb9414ba1e9",
      "resource": {
        "resourceType": "MedicationRequest",
        "status": "active",
        "intent": "order",
        "medicationReference": {
          "reference": "urn:uuid:5fe064bd-fcbb-47ce-a33e-4bdfbdaf06c3"
        },
        "subject": {
          "reference": "urn:uuid:67f3dc7c-eff6-4f4b-9188-612bc109243e"
        },
        "encounter": {
          "reference": "urn:uuid:4dc2b03f-20d1-41c5-b934-4b982a573f8f"
        },
        "requester": {
          "reference": "urn:uuid:052c8fab-2391-468c-945d-44f1e79331fc"
        },
        "authoredOn": "2025-01-10",
        "dosageInstruction": [
          {
            "text": "Take 500mg PRN-312f3f38",
            "timing": {
              "repeat": {
                "frequency": 3,
                "period": 1,
                "periodUnit": "d"
              }
            }
          }
        ]
      },
      "request": {
        "method": "POST",
        "url": "MedicationRequest"
      }
    },
    {
      "fullUrl": "urn:uuid:86860b2b-a31d-4c49-aa66-948bf4fe58fd",
      "resource": {
        "resourceType": "MedicationRequest",
        "status": "active",
        "intent": "order",
        "medicationReference": {
          "reference": "urn:uuid:653b97bd-6275-4e38-b3f7-48a84bb17fe4"
        },
        "subject": {
          "reference": "urn:uuid:67f3dc7c-eff6-4f4b-9188-612bc109243e"
        },
        "requester": {
          "reference": "urn:uuid:052c8fab-2391-468c-945d-44f1e79331fc"
        },
        "authoredOn": "2025-02-01",
        "dosageInstruction": [
          {
            "text": "250mg TID-312f3f38"
          }
        ]
      },
      "request": {
        "method": "POST",
        "url": "MedicationRequest"
      }
    },
    {
      "fullUrl": "urn:uuid:c0136109-8629-47e6-998b-7d553a4152b1",
      "resource": {
        "resourceType": "MedicationRequest",
        "status": "active",
        "intent": "order",
        "medicationReference": {
          "reference": "urn:uuid:e68e5004-1c55-4fd8-9e9d-2d26ea30c414"
        },
        "subject": {
          "reference": "urn:uuid:1d58917c-4050-4069-a935-93a7db8f908d"
        },
        "requester": {
          "reference": "urn:uuid:b3bd2394-75dd-41c9-81d6-8c8a36945119"
        },
        "authoredOn": "2025-03-15"
      },
      "request": {
        "method": "POST",
        "url": "MedicationRequest"
      }
    },
    {
      "fullUrl": "urn:uuid:9e55f69e-0cda-46e7-ad16-339a0b5a2917",
      "resource": {
        "resourceType": "MedicationRequest",
        "status": "stopped",
        "intent": "order",
        "medicationReference": {
          "reference": "urn:uuid:a1284219-a6c3-43c0-9b23-7d80f528f47d"
        },
        "subject": {
          "reference": "urn:uuid:ecd4e167-52a9-47da-9a8b-b7d6f1ecd4ed"
        },
        "requester": {
          "reference": "urn:uuid:919a101a-7d60-43a1-a16f-9ca5da187021"
        },
        "authoredOn": "2025-04-01"
      },
      "request": {
        "method": "POST",
        "url": "MedicationRequest"
      }
    },
    {
      "fullUrl": "urn:uuid:2acc74d7-a385-4089-b801-7a203cc3d9ad",
      "resource": {
        "resourceType": "MedicationRequest",
        "status": "active",
        "intent": "plan",
        "medicationReference": {
          "reference": "urn:uuid:67cadb38-5b5b-4c63-9b32-eac3a256fd15"
        },
        "subject": {
          "reference": "urn:uuid:95eb211b-4d8c-441e-80fc-ff7ae70bf1f2"
        },
        "encounter": {
          "reference": "urn:uuid:b0791311-5a13-4439-b790-265f58e52720"
        },
        "requester": {
          "reference": "urn:uuid:95de7e00-0548-43e4-9ed3-6d1eb75763ff"
        },
        "authoredOn": "2025-06-01"
      },
      "request": {
        "method": "POST",
        "url": "MedicationRequest"
      }
    },
    {
      "fullUrl": "urn:uuid:5fe064bd-fcbb-47ce-a33e-4bdfbdaf06c3",
      "resource": {
        "resourceType": "Medication",
        "code": {
          "coding": [
            {
              "system": "http://www.nlm.nih.gov/research/umls/rxnorm",
              "code": "1049502",
              "display": "Acetaminophen-312f3f38"
            }
          ]
        },
        "status": "active"
      },
      "request": {
        "method": "POST",
        "url": "Medication"
      }
    },
    {
      "fullUrl": "urn:uuid:653b97bd-6275-4e38-b3f7-48a84bb17fe4",
      "resource": {
        "resourceType": "Medication",
        "code": {
          "coding": [
            {
              "system": "http://www.nlm.nih.gov/research/umls/rxnorm",
              "code": "197361",
              "display": "Amoxicillin-312f3f38"
            }
          ]
        },
        "status": "active",
        "manufacturer": {
          "reference": "urn:uuid:d20b7ddb-3481-4d46-a9e8-b83f6bd77391"
        }
      },
      "request": {
        "method": "POST",
        "url": "Medication"
      }
    },
    {
      "fullUrl": "urn:uuid:e68e5004-1c55-4fd8-9e9d-2d26ea30c414",
      "resource": {
        "resourceType": "Medication",
        "code": {
          "coding": [
            {
              "system": "http://www.nlm.nih.gov/research/umls/rxnorm",
              "code": "310965",
              "display": "Lisinopril-312f3f38"
            }
          ]
        },
        "status": "active"
      },
      "request": {
        "method": "POST",
        "url": "Medication"
      }
    },
    {
      "fullUrl": "urn:uuid:a1284219-a6c3-43c0-9b23-7d80f528f47d",
      "resource": {
        "resourceType": "Medication",
        "code": {
          "coding": [
            {
              "system": "http://www.nlm.nih.gov/research/umls/rxnorm",
              "code": "860975",
              "display": "Metformin-312f3f38"
            }
          ]
        },
        "status": "active"
      },
      "request": {
        "method": "POST",
        "url": "Medication"
      }
    },
    {
      "fullUrl": "urn:uuid:67cadb38-5b5b-4c63-9b32-eac3a256fd15",
      "resource": {
        "resourceType": "Medication",
        "code": {
          "coding": [
            {
              "system": "http://www.nlm.nih.gov/research/umls/rxnorm",
              "code": "198440",
              "display": "Omeprazole-312f3f38"
            }
          ]
        },
        "status": "inactive"
      },
      "request": {
        "method": "POST",
        "url": "Medication"
      }
    },
    {
      "fullUrl": "urn:uuid:5bd7e5cc-6ef2-4400-8d8b-314c757b262d",
      "resource": {
        "resourceType": "AllergyIntolerance",
        "clinicalStatus": {
          "coding": [
            {
              "system": "http://terminology.hl7.org/CodeSystem/allergyintolerance-clinical",
              "code": "active"
            }
          ]
        },
        "verificationStatus": {
          "coding": [
            {
              "system": "http://terminology.hl7.org/CodeSystem/allergyintolerance-verification",
              "code": "confirmed"
            }
          ]
        },
        "type": "allergy",
        "category": [
          "medication"
        ],
        "code": {
          "coding": [
            {
              "system": "http://snomed.info/sct",
              "code": "387458008",
              "display": "Aspirin-312f3f38"
            }
          ]
        },
        "patient": {
          "reference": "urn:uuid:67f3dc7c-eff6-4f4b-9188-612bc109243e"
        },
        "onsetDateTime": "2015-01-01",
        "reaction": [
          {
            "manifestation": [
              {
                "coding": [
                  {
                    "system": "http://snomed.info/sct",
                    "code": "271807003",
                    "display": "Rash"
                  }
                ]
              }
            ],
            "severity": "moderate"
          }
        ]
      },
      "request": {
        "method": "POST",
        "url": "AllergyIntolerance"
      }
    },
    {
      "fullUrl": "urn:uuid:17f613b6-ddae-412b-b83a-aad21c6c782e",
      "resource": {
        "resourceType": "AllergyIntolerance",
        "clinicalStatus": {
          "coding": [
            {
              "system": "http://terminology.hl7.org/CodeSystem/allergyintolerance-clinical",
              "code": "active"
            }
          ]
        },
        "type": "allergy",
        "category": [
          "food"
        ],
        "code": {
          "coding": [
            {
              "system": "http://snomed.info/sct",
              "code": "91935009",
              "display": "Peanut-312f3f38"
            }
          ]
        },
        "patient": {
          "reference": "urn:uuid:67f3dc7c-eff6-4f4b-9188-612bc109243e"
        }
      },
      "request": {
        "method": "POST",
        "url": "AllergyIntolerance"
      }
    },
    {
      "fullUrl": "urn:uuid:ee5ec01f-5606-461e-acca-3fb6e31b6f71",
      "resource": {
        "resourceType": "AllergyIntolerance",
        "clinicalStatus": {
          "coding": [
            {
              "system": "http://terminology.hl7.org/CodeSystem/allergyintolerance-clinical",
              "code": "active"
            }
          ]
        },
        "type": "intolerance",
        "category": [
          "medication"
        ],
        "code": {
          "coding": [
            {
              "system": "http://snomed.info/sct",
              "code": "372687004",
              "display": "Penicillin-312f3f38"
            }
          ]
        },
        "patient": {
          "reference": "urn:uuid:1d58917c-4050-4069-a935-93a7db8f908d"
        }
      },
      "request": {
        "method": "POST",
        "url": "AllergyIntolerance"
      }
    },
    {
      "fullUrl": "urn:uuid:6d461952-ec0d-45a8-88ff-b212d161b4d5",
      "resource": {
        "resourceType": "AllergyIntolerance",
        "clinicalStatus": {
          "coding": [
            {
              "system": "http://terminology.hl7.org/CodeSystem/allergyintolerance-clinical",
              "code": "resolved"
            }
          ]
        },
        "code": {
          "coding": [
            {
              "system": "http://snomed.info/sct",
              "code": "264295007",
              "display": "Latex-312f3f38"
            }
          ]
        },
        "patient": {
          "reference": "urn:uuid:ecd4e167-52a9-47da-9a8b-b7d6f1ecd4ed"
        }
      },
      "request": {
        "method": "POST",
        "url": "AllergyIntolerance"
      }
    },
    {
      "fullUrl": "urn:uuid:42644fd9-18ff-4bf6-8521-46f7b4438d4f",
      "resource": {
        "resourceType": "AllergyIntolerance",
        "clinicalStatus": {
          "coding": [
            {
              "system": "http://terminology.hl7.org/CodeSystem/allergyintolerance-clinical",
              "code": "active"
            }
          ]
        },
        "type": "allergy",
        "category": [
          "environment"
        ],
        "code": {
          "coding": [
            {
              "system": "http://snomed.info/sct",
              "code": "256259004",
              "display": "Pollen-312f3f38"
            }
          ]
        },
        "patient": {
          "reference": "urn:uuid:95eb211b-4d8c-441e-80fc-ff7ae70bf1f2"
        }
      },
      "request": {
        "method": "POST",
        "url": "AllergyIntolerance"
      }
    },
    {
      "fullUrl": "urn:uuid:f3c65d02-eb57-4b44-8441-0712b52b1ee5",
      "resource": {
        "resourceType": "Procedure",
        "status": "completed",
        "code": {
          "coding": [
            {
              "system": "http://snomed.info/sct",
              "code": "80146002",
              "display": "Appendectomy-312f3f38"
            }
          ]
        },
        "subject": {
          "reference": "urn:uuid:67f3dc7c-eff6-4f4b-9188-612bc109243e"
        },
        "encounter": {
          "reference": "urn:uuid:f65e12f4-0145-4627-bff2-b2a6fa16ae9c"
        },
        "performedDateTime": "2025-02-03T14:00:00Z",
        "performer": [
          {
            "actor": {
              "reference": "urn:uuid:919a101a-7d60-43a1-a16f-9ca5da187021"
            }
          }
        ]
      },
      "request": {
        "method": "POST",
        "url": "Procedure"
      }
    },
    {
      "fullUrl": "urn:uuid:5ee15c37-b258-4ffd-aade-2edafe805882",
      "resource": {
        "resourceType": "Procedure",
        "status": "completed",
        "code": {
          "coding": [
            {
              "system": "http://snomed.info/sct",
              "code": "232717009",
              "display": "Coronography-312f3f38"
            }
          ]
        },
        "subject": {
          "reference": "urn:uuid:67f3dc7c-eff6-4f4b-9188-612bc109243e"
        },
        "performedPeriod": {
          "start": "2025-02-04T08:00:00Z",
          "end": "2025-02-04T10:00:00Z"
        }
      },
      "request": {
        "method": "POST",
        "url": "Procedure"
      }
    },
    {
      "fullUrl": "urn:uuid:957ec247-8d80-462d-a670-9d7435b1e7f7",
      "resource": {
        "resourceType": "Procedure",
        "status": "completed",
        "code": {
          "coding": [
            {
              "system": "http://snomed.info/sct",
              "code": "36969009",
              "display": "BloodDraw-312f3f38"
            }
          ]
        },
        "subject": {
          "reference": "urn:uuid:1d58917c-4050-4069-a935-93a7db8f908d"
        },
        "encounter": {
          "reference": "urn:uuid:062135fa-e2dc-459c-8122-480accfa1779"
        },
        "performedDateTime": "2025-03-15T14:15:00Z"
      },
      "request": {
        "method": "POST",
        "url": "Procedure"
      }
    },
    {
      "fullUrl": "urn:uuid:5278bf41-1c32-426d-ab5a-7a55b2608ded",
      "resource": {
        "resourceType": "Procedure",
        "status": "in-progress",
        "code": {
          "coding": [
            {
              "system": "http://snomed.info/sct",
              "code": "418891003",
              "display": "Dressing-312f3f38"
            }
          ]
        },
        "subject": {
          "reference": "urn:uuid:ecd4e167-52a9-47da-9a8b-b7d6f1ecd4ed"
        },
        "encounter": {
          "reference": "urn:uuid:eb952283-64b8-4295-9e30-c1471a435dd6"
        },
        "performedDateTime": "2026-02-25T11:00:00Z"
      },
      "request": {
        "method": "POST",
        "url": "Procedure"
      }
    },
    {
      "fullUrl": "urn:uuid:262d332e-5c71-416d-a69a-a4f7cd9fc516",
      "resource": {
        "resourceType": "Procedure",
        "status": "completed",
        "code": {
          "coding": [
            {
              "system": "http://snomed.info/sct",
              "code": "274025005",
              "display": "EKG-312f3f38"
            }
          ]
        },
        "subject": {
          "reference": "urn:uuid:95eb211b-4d8c-441e-80fc-ff7ae70bf1f2"
        },
        "encounter": {
          "reference": "urn:uuid:b0791311-5a13-4439-b790-265f58e52720"
        },
        "performedDateTime": "2025-06-01T11:45:00Z"
      },
      "request": {
        "method": "POST",
        "url": "Procedure"
      }
    },
    {
      "fullUrl": "urn:uuid:10b5c074-6687-4021-8bb0-c4e30192ac6c",
      "resource": {
        "resourceType": "ServiceRequest",
        "status": "active",
        "intent": "order",
        "code": {
          "coding": [
            {
              "system": "http://snomed.info/sct",
              "code": "26604007",
              "display": "FBC-312f3f38"
            }
          ]
        },
        "subject": {
          "reference": "urn:uuid:67f3dc7c-eff6-4f4b-9188-612bc109243e"
        },
        "encounter": {
          "reference": "urn:uuid:4dc2b03f-20d1-41c5-b934-4b982a573f8f"
        },
        "requester": {
          "reference": "urn:uuid:052c8fab-2391-468c-945d-44f1e79331fc"
        },
        "authoredOn": "2025-01-10"
      },
      "request": {
        "method": "POST",
        "url": "ServiceRequest"
      }
    },
    {
      "fullUrl": "urn:uuid:e7e2d7ec-7d2c-4779-a9d0-ca4c3cb98b8d",
      "resource": {
        "resourceType": "ServiceRequest",
        "status": "completed",
        "intent": "order",
        "code": {
          "coding": [
            {
              "system": "http://snomed.info/sct",
              "code": "77477000",
              "display": "CTScan-312f3f38"
            }
          ]
        },
        "subject": {
          "reference": "urn:uuid:67f3dc7c-eff6-4f4b-9188-612bc109243e"
        },
        "encounter": {
          "reference": "urn:uuid:f65e12f4-0145-4627-bff2-b2a6fa16ae9c"
        },
        "authoredOn": "2025-02-01"
      },
      "request": {
        "method": "POST",
        "url": "ServiceRequest"
      }
    },
    {
      "fullUrl": "urn:uuid:949900c9-737a-492a-be5c-04080113c96b",
      "resource": {
        "resourceType": "ServiceRequest",
        "status": "active",
        "intent": "order",
        "code": {
          "coding": [
            {
              "system": "http://snomed.info/sct",
              "code": "104001",
              "display": "Excision-312f3f38"
            }
          ]
        },
        "subject": {
          "reference": "urn:uuid:1d58917c-4050-4069-a935-93a7db8f908d"
        },
        "authoredOn": "2025-03-15"
      },
      "request": {
        "method": "POST",
        "url": "ServiceRequest"
      }
    },
    {
      "fullUrl": "urn:uuid:49728a79-287c-4b7a-abe8-9a6e62c5b9a9",
      "resource": {
        "resourceType": "ServiceRequest",
        "status": "active",
        "intent": "order",
        "code": {
          "coding": [
            {
              "system": "http://snomed.info/sct",
              "code": "252275004",
              "display": "Imaging-312f3f38"
            }
          ]
        },
        "subject": {
          "reference": "urn:uuid:ecd4e167-52a9-47da-9a8b-b7d6f1ecd4ed"
        },
        "encounter": {
          "reference": "urn:uuid:eb952283-64b8-4295-9e30-c1471a435dd6"
        },
        "authoredOn": "2026-02-25"
      },
      "request": {
        "method": "POST",
        "url": "ServiceRequest"
      }
    },
    {
      "fullUrl": "urn:uuid:3ac194a0-a47e-42c1-9edd-0bef5f8cec8e",
      "resource": {
        "resourceType": "ServiceRequest",
        "status": "active",
        "intent": "plan",
        "code": {
          "coding": [
            {
              "system": "http://snomed.info/sct",
              "code": "409063005",
              "display": "Counseling-312f3f38"
            }
          ]
        },
        "subject": {
          "reference": "urn:uuid:95eb211b-4d8c-441e-80fc-ff7ae70bf1f2"
        },
        "authoredOn": "2025-06-01"
      },
      "request": {
        "method": "POST",
        "url": "ServiceRequest"
      }
    },
    {
      "fullUrl": "urn:uuid:c962f925-0db6-4874-8565-592d60e4929e",
      "resource": {
        "resourceType": "CarePlan",
        "status": "active",
        "intent": "plan",
        "title": "DM Management-312f3f38",
        "subject": {
          "reference": "urn:uuid:67f3dc7c-eff6-4f4b-9188-612bc109243e"
        },
        "encounter": {
          "reference": "urn:uuid:4dc2b03f-20d1-41c5-b934-4b982a573f8f"
        },
        "addresses": [
          {
            "reference": "urn:uuid:7f2a59b9-67a3-4053-916e-7c7b91eb6f55"
          }
        ],
        "category": [
          {
            "coding": [
              {
                "system": "http://hl7.org/fhir/us/core/CodeSystem/careplan-category",
                "code": "assess-plan"
              }
            ]
          }
        ]
      },
      "request": {
        "method": "POST",
        "url": "CarePlan"
      }
    },
    {
      "fullUrl": "urn:uuid:daede724-73f8-4904-953d-9eeb338a5f02",
      "resource": {
        "resourceType": "CarePlan",
        "status": "active",
        "intent": "plan",
        "title": "HTN Management-312f3f38",
        "subject": {
          "reference": "urn:uuid:67f3dc7c-eff6-4f4b-9188-612bc109243e"
        },
        "addresses": [
          {
            "reference": "urn:uuid:1380a05c-7371-4405-8e31-e5650f1ea194"
          }
        ]
      },
      "request": {
        "method": "POST",
        "url": "CarePlan"
      }
    },
    {
      "fullUrl": "urn:uuid:12d5d5d4-014a-4f0f-8cd4-e71de8715b5d",
      "resource": {
        "resourceType": "CarePlan",
        "status": "completed",
        "intent": "plan",
        "title": "Pneumonia Recovery-312f3f38",
        "subject": {
          "reference": "urn:uuid:1d58917c-4050-4069-a935-93a7db8f908d"
        },
        "addresses": [
          {
            "reference": "urn:uuid:56ee9ef7-497b-4039-beba-10656342ef7a"
          }
        ]
      },
      "request": {
        "method": "POST",
        "url": "CarePlan"
      }
    },
    {
      "fullUrl": "urn:uuid:d87227ce-fc95-41fa-b7d7-a3596f152298",
      "resource": {
        "resourceType": "CarePlan",
        "status": "active",
        "intent": "plan",
        "title": "DM1 Care-312f3f38",
        "subject": {
          "reference": "urn:uuid:ecd4e167-52a9-47da-9a8b-b7d6f1ecd4ed"
        },
        "addresses": [
          {
            "reference": "urn:uuid:436ec952-b784-4076-a37f-67de127c1647"
          }
        ]
      },
      "request": {
        "method": "POST",
        "url": "CarePlan"
      }
    },
    {
      "fullUrl": "urn:uuid:64cf7111-954e-4c4e-aa01-399821541043",
      "resource": {
        "resourceType": "CarePlan",
        "status": "active",
        "intent": "plan",
        "title": "Asthma Action-312f3f38",
        "subject": {
          "reference": "urn:uuid:95eb211b-4d8c-441e-80fc-ff7ae70bf1f2"
        },
        "encounter": {
          "reference": "urn:uuid:b0791311-5a13-4439-b790-265f58e52720"
        },
        "addresses": [
          {
            "reference": "urn:uuid:a5afc25c-e027-42fd-a366-11225da3efe1"
          }
        ]
      },
      "request": {
        "method": "POST",
        "url": "CarePlan"
      }
    },
    {
      "fullUrl": "urn:uuid:f45081bb-ee3f-49b1-92d1-e312f1d22f93",
      "resource": {
        "resourceType": "Immunization",
        "status": "completed",
        "vaccineCode": {
          "coding": [
            {
              "system": "http://hl7.org/fhir/sid/cvx",
              "code": "208",
              "display": "COVID19-312f3f38"
            }
          ]
        },
        "patient": {
          "reference": "urn:uuid:67f3dc7c-eff6-4f4b-9188-612bc109243e"
        },
        "occurrenceDateTime": "2025-01-15T09:00:00Z",
        "encounter": {
          "reference": "urn:uuid:4dc2b03f-20d1-41c5-b934-4b982a573f8f"
        }
      },
      "request": {
        "method": "POST",
        "url": "Immunization"
      }
    },
    {
      "fullUrl": "urn:uuid:7ed571c1-f4af-4d63-bf03-2b8cd912932c",
      "resource": {
        "resourceType": "Immunization",
        "status": "completed",
        "vaccineCode": {
          "coding": [
            {
              "system": "http://hl7.org/fhir/sid/cvx",
              "code": "141",
              "display": "Influenza-312f3f38"
            }
          ]
        },
        "patient": {
          "reference": "urn:uuid:67f3dc7c-eff6-4f4b-9188-612bc109243e"
        },
        "occurrenceDateTime": "2025-10-01"
      },
      "request": {
        "method": "POST",
        "url": "Immunization"
      }
    },
    {
      "fullUrl": "urn:uuid:c626fcab-e586-425f-afe2-d1bcc4ec48c1",
      "resource": {
        "resourceType": "Immunization",
        "status": "completed",
        "vaccineCode": {
          "coding": [
            {
              "system": "http://hl7.org/fhir/sid/cvx",
              "code": "08",
              "display": "HepB-312f3f38"
            }
          ]
        },
        "patient": {
          "reference": "urn:uuid:1d58917c-4050-4069-a935-93a7db8f908d"
        },
        "occurrenceDateTime": "2025-04-01"
      },
      "request": {
        "method": "POST",
        "url": "Immunization"
      }
    },
    {
      "fullUrl": "urn:uuid:f6b5d2e8-fe69-4cec-8f2a-8048a9a039c7",
      "resource": {
        "resourceType": "Immunization",
        "status": "not-done",
        "vaccineCode": {
          "coding": [
            {
              "system": "http://hl7.org/fhir/sid/cvx",
              "code": "03",
              "display": "MMR-312f3f38"
            }
          ]
        },
        "patient": {
          "reference": "urn:uuid:af8b731d-4d68-4436-ae7b-933bab6596de"
        },
        "occurrenceDateTime": "2025-05-01",
        "statusReason": {
          "coding": [
            {
              "system": "http://terminology.hl7.org/CodeSystem/v3-ActReason",
              "code": "MEDPREC"
            }
          ]
        }
      },
      "request": {
        "method": "POST",
        "url": "Immunization"
      }
    },
    {
      "fullUrl": "urn:uuid:aa911b18-8626-47a5-900d-3fc131db8c41",
      "resource": {
        "resourceType": "Immunization",
        "status": "completed",
        "vaccineCode": {
          "coding": [
            {
              "system": "http://hl7.org/fhir/sid/cvx",
              "code": "113",
              "display": "Tdap-312f3f38"
            }
          ]
        },
        "patient": {
          "reference": "urn:uuid:95eb211b-4d8c-441e-80fc-ff7ae70bf1f2"
        },
        "occurrenceDateTime": "2025-06-01",
        "encounter": {
          "reference": "urn:uuid:b0791311-5a13-4439-b790-265f58e52720"
        }
      },
      "request": {
        "method": "POST",
        "url": "Immunization"
      }
    }
  ]
}