{
  "resourceType": "Bundle",
  "type": "transaction",
  "entry": [
    {
      "fullUrl": "urn:uuid:195eea60-8784-482c-aaa3-7d0693e7c18e",
      "resource": {
        "resourceType": "Organization",
        "name": "Central Hospital-dff7107a",
        "identifier": [
          {
            "system": "http://example.com/org",
            "value": "ORG-001-dff7107a"
          }
        ],
        "type": [
          {
            "coding": [
              {
                "system": "http://terminology.hl7.org/CodeSystem/organization-type",
                "code": "prov"
              }
            ]
          }
        ],
        "telecom": [
          {
            "system": "phone",
            "value": "555-0100"
          }
        ],
        "address": [
          {
            "line": [
              "100 Main St"
            ],
            "city": "Springfield",
            "state": "IL",
            "postalCode": "62701",
            "country": "US"
          }
        ]
      },
      "request": {
        "method": "POST",
        "url": "Organization"
      }
    },
    {
      "fullUrl": "urn:uuid:06f84fc0-be30-4c39-b21c-dc04618afd2f",
      "resource": {
        "resourceType": "Organization",
        "name": "East Wing Lab-dff7107a",
        "identifier": [
          {
            "system": "http://example.com/org",
            "value": "ORG-002-dff7107a"
          }
        ],
        "type": [
          {
            "coding": [
              {
                "system": "http://terminology.hl7.org/CodeSystem/organization-type",
                "code": "dept"
              }
            ]
          }
        ]
      },
      "request": {
        "method": "POST",
        "url": "Organization"
      }
    },
    {
      "fullUrl": "urn:uuid:7cebbbb7-846a-443d-853e-cd880aec7498",
      "resource": {
        "resourceType": "Organization",
        "name": "Pharmacy Services-dff7107a",
        "identifier": [
          {
            "system": "http://example.com/org",
            "value": "ORG-003-dff7107a"
          }
        ]
      },
      "request": {
        "method": "POST",
        "url": "Organization"
      }
    },
    {
      "fullUrl": "urn:uuid:78ab43e1-a19b-401c-9dc4-0c6dc81cd993",
      "resource": {
        "resourceType": "Organization",
        "name": "Insurance Corp-dff7107a",
        "identifier": [
          {
            "system": "http://example.com/org",
            "value": "ORG-004-dff7107a"
          }
        ],
        "type": [
          {
            "coding": [
              {
                "system": "http://terminology.hl7.org/CodeSystem/organization-type",
                "code": "ins"
              }
            ]
          }
        ]
      },
      "request": {
        "method": "POST",
        "url": "Organization"
      }
    },
    {
      "fullUrl": "urn:uuid:4099a660-fd77-4b78-9d70-a60e93b77a9a",
      "resource": {
        "resourceType": "Organization",
        "name": "Specialty Clinic-dff7107a",
        "identifier": [
          {
            "system": "http://example.com/org",
            "value": "ORG-005-dff7107a"
          }
        ],
        "address": [
          {
            "line": [
              "200 Oak Ave"
            ],
            "city": "Shelbyville",
            "state": "IL",
            "postalCode": "62702",
            "country": "US"
          }
        ]
      },
      "request": {
        "method": "POST",
        "url": "Organization"
      }
    },
    {
      "fullUrl": "urn:uuid:9b35ce1e-196a-4d80-9741-629336a99522",
      "resource": {
        "resourceType": "Practitioner",
        "name": [
          {
            "family": "Smith-dff7107a",
            "given": [
              "John",
              "A"
            ],
            "prefix": [
              "Dr."
            ]
          }
        ],
        "identifier": [
          {
            "system": "http://example.com/npi",
            "value": "NPI-001-dff7107a"
          }
        ],
        "gender": "male",
        "birthDate": "1975-03-15",
        "telecom": [
          {
            "system": "email",
            "value": "john.smith-dff7107a@hospital.com"
          }
        ],
        "address": [
          {
            "line": [
              "100 Main St"
            ],
            "city": "Springfield",
            "state": "IL",
            "postalCode": "62701",
            "country": "US"
          }
        ]
      },
      "request": {
        "method": "POST",
        "url": "Practitioner"
      }
    },
    {
      "fullUrl": "urn:uuid:d6967641-6de3-402b-a19b-51bc5bbe74cd",
      "resource": {
        "resourceType": "Practitioner",
        "name": [
          {
            "family": "Johnson-dff7107a",
            "given": [
              "Emily"
            ]
          }
        ],
        "identifier": [
          {
            "system": "http://example.com/npi",
            "value": "NPI-002-dff7107a"
          }
        ],
        "gender": "female"
      },
      "request": {
        "method": "POST",
        "url": "Practitioner"
      }
    },
    {
      "fullUrl": "urn:uuid:95688fba-c7b4-46cd-a809-d55e6fc731ad",
      "resource": {
        "resourceType": "Practitioner",
        "name": [
          {
            "family": "Williams-dff7107a",
            "given": [
              "Robert"
            ]
          }
        ],
        "identifier": [
          {
            "system": "http://example.com/npi",
            "value": "NPI-003-dff7107a"
          }
        ],
        "gender": "male"
      },
      "request": {
        "method": "POST",
        "url": "Practitioner"
      }
    },
    {
      "fullUrl": "urn:uuid:5007cd32-835e-4bfe-a5a1-a372a14addf6",
      "resource": {
        "resourceType": "Practitioner",
        "name": [
          {
            "family": "Brown-dff7107a",
            "given": [
              "Sarah"
            ]
          }
        ],
        "identifier": [
          {
            "system": "http://example.com/npi",
            "value": "NPI-004-dff7107a"
          }
        ],
        "gender": "female"
      },
      "request": {
        "method": "POST",
        "url": "Practitioner"
      }
    },
    {
      "fullUrl": "urn:uuid:5ff07891-a142-43aa-af8f-cf98f76d8b67",
      "resource": {
        "resourceType": "Practitioner",
        "name": [
          {
            "family": "Davis-dff7107a",
            "given": [
              "Michael",
              "J"
            ]
          }
        ],
        "identifier": [
          {
            "system": "http://example.com/npi",
            "value": "NPI-005-dff7107a"
          }
        ],
        "gender": "male",
        "telecom": [
          {
            "system": "phone",
            "value": "555-0200"
          },
          {
            "system": "email",
            "value": "michael.davis-dff7107a@hospital.com"
          }
        ]
      },
      "request": {
        "method": "POST",
        "url": "Practitioner"
      }
    },
    {
      "fullUrl": "urn:uuid:d7c85b66-22cd-4b52-bee1-43c870598b69",
      "resource": {
        "resourceType": "PractitionerRole",
        "practitioner": {
          "reference": "urn:uuid:9b35ce1e-196a-4d80-9741-629336a99522"
        },
        "organization": {
          "reference": "urn:uuid:195eea60-8784-482c-aaa3-7d0693e7c18e"
        },
        "code": [
          {
            "coding": [
              {
                "system": "http://snomed.info/sct",
                "code": "59058001",
                "display": "GP-dff7107a"
              }
            ]
          }
        ],
        "active": true
      },
      "request": {
        "method": "POST",
        "url": "PractitionerRole"
      }
    },
    {
      "fullUrl": "urn:uuid:e8b079d5-583b-42ca-b28d-627074217f16",
      "resource": {
        "resourceType": "PractitionerRole",
        "practitioner": {
          "reference": "urn:uuid:d6967641-6de3-402b-a19b-51bc5bbe74cd"
        },
        "organization": {
          "reference": "urn:uuid:06f84fc0-be30-4c39-b21c-dc04618afd2f"
        },
        "code": [
          {
            "coding": [
              {
                "system": "http://snomed.info/sct",
                "code": "61246008",
                "display": "Lab-dff7107a"
              }
            ]
          }
        ]
      },
      "request": {
        "method": "POST",
        "url": "PractitionerRole"
      }
    },
    {
      "fullUrl": "urn:uuid:61b69a82-07e9-4087-a1cb-964a538459d2",
      "resource": {
        "resourceType": "PractitionerRole",
        "practitioner": {
          "reference": "urn:uuid:95688fba-c7b4-46cd-a809-d55e6fc731ad"
        },
        "organization": {
          "reference": "urn:uuid:195eea60-8784-482c-aaa3-7d0693e7c18e"
        },
        "code": [
          {
            "coding": [
              {
                "system": "http://snomed.info/sct",
                "code": "304292004",
                "display": "Surgeon-dff7107a"
              }
            ]
          }
        ]
      },
      "request": {
        "method": "POST",
        "url": "PractitionerRole"
      }
    },
    {
      "fullUrl": "urn:uuid:fe2792b7-9f86-46a4-873a-43cb8d8adee8",
      "resource": {
        "resourceType": "PractitionerRole",
        "practitioner": {
          "reference": "urn:uuid:5007cd32-835e-4bfe-a5a1-a372a14addf6"
        },
        "organization": {
          "reference": "urn:uuid:7cebbbb7-846a-443d-853e-cd880aec7498"
        },
        "code": [
          {
            "coding": [
              {
                "system": "http://snomed.info/sct",
                "code": "46255001",
                "display": "Pharmacist-dff7107a"
              }
            ]
          }
        ]
      },
      "request": {
        "method": "POST",
        "url": "PractitionerRole"
      }
    },
    {
      "fullUrl": "urn:uuid:4b07d3fc-563d-443b-ab25-75592ea657dc",
      "resource": {
        "resourceType": "PractitionerRole",
        "practitioner": {
          "reference": "urn:uuid:5ff07891-a142-43aa-af8f-cf98f76d8b67"
        },
        "organization": {
          "reference": "urn:uuid:4099a660-fd77-4b78-9d70-a60e93b77a9a"
        },
        "code": [
          {
            "coding": [
              {
                "system": "http://snomed.info/sct",
                "code": "309343006",
                "display": "Specialist-dff7107a"
              }
            ]
          }
        ]
      },
      "request": {
        "method": "POST",
        "url": "PractitionerRole"
      }
    },
    {
      "fullUrl": "urn:uuid:61353c18-d0bb-4ac6-9b22-7ecc899f6913",
      "resource": {
        "resourceType": "Patient",
        "active": true,
        "gender": "male",
        "birthDate": "1985-06-15",
        "name": [
          {
            "use": "official",
            "family": "Doe-dff7107a",
            "given": [
              "John",
              "Michael"
            ]
          },
          {
            "use": "nickname",
            "given": [
              "Johnny"
            ]
          }
        ],
        "identifier": [
          {
            "system": "http://example.com/mrn",
            "value": "MRN-001-dff7107a"
          },
          {
            "system": "http://example.com/ssn",
            "value": "SSN-001-dff7107a"
          }
        ],
        "telecom": [
          {
            "system": "phone",
            "value": "555-1001",
            "use": "home"
          },
          {
            "system": "email",
            "value": "john.doe-dff7107a@example.com",
            "use": "work"
          }
        ],
        "address": [
          {
            "use": "home",
            "line": [
              "123 Elm St",
              "Apt 4B"
            ],
            "city": "Springfield",
            "state": "IL",
            "postalCode": "62701",
            "country": "US"
          }
        ],
        "managingOrganization": {
          "reference": "urn:uuid:195eea60-8784-482c-aaa3-7d0693e7c18e"
        },
        "generalPractitioner": [
          {
            "reference": "urn:uuid:9b35ce1e-196a-4d80-9741-629336a99522"
          }
        ],
        "meta": {
          "tag": [
            {
              "system": "http://example.com/tags",
              "code": "vip-dff7107a"
            }
          ]
        },
        "maritalStatus": {
          "coding": [
            {
              "system": "http://terminology.hl7.org/CodeSystem/v3-MaritalStatus",
              "code": "M",
              "display": "Married"
            }
          ]
        },
        "communication": [
          {
            "language": {
              "coding": [
                {
                  "system": "urn:ietf:bcp:47",
                  "code": "en"
                }
              ]
            }
          }
        ]
      },
      "request": {
        "method": "POST",
        "url": "Patient"
      }
    },
    {
      "fullUrl": "urn:uuid:57735091-21b0-4650-b3a2-8e134ebc1d2c",
      "resource": {
        "resourceType": "Patient",
        "active": true,
        "gender": "female",
        "birthDate": "1990-11-22",
        "name": [
          {
            "use": "official",
            "family": "Smith-dff7107a",
            "given": [
              "Jane",
              "Elizabeth"
            ]
          }
        ],
        "identifier": [
          {
            "system": "http://example.com/mrn",
            "value": "MRN-002-dff7107a"
          }
        ],
        "telecom": [
          {
            "system": "phone",
            "value": "555-1002"
          }
        ],
        "address": [
          {
            "use": "home",
            "line": [
              "456 Oak Ave"
            ],
            "city": "Chicago",
            "state": "IL",
            "postalCode": "60601",
            "country": "US"
          }
        ],
        "managingOrganization": {
          "reference": "urn:uuid:195eea60-8784-482c-aaa3-7d0693e7c18e"
        }
      },
      "request": {
        "method": "POST",
        "url": "Patient"
      }
    },
    {
      "fullUrl": "urn:uuid:e28323dd-2ca7-4ce9-b4fa-a7b4562364a4",
      "resource": {
        "resourceType": "Patient",
        "active": true,
        "gender": "male",
        "birthDate": "1978-01-30",
        "name": [
          {
            "use": "official",
            "family": "Williams-dff7107a",
            "given": [
              "Robert"
            ]
          }
        ],
        "identifier": [
          {
            "system": "http://example.com/mrn",
            "value": "MRN-003-dff7107a"
          }
        ],
        "address": [
          {
            "line": [
              "789 Pine Rd"
            ],
            "city": "Shelbyville",
            "state": "IL",
            "postalCode": "62702",
            "country": "US"
          },
          {
            "use": "work",
            "line": [
              "100 Main St"
            ],
            "city": "Springfield",
            "state": "IL"
          }
        ],
        "generalPractitioner": [
          {
            "reference": "urn:uuid:95688fba-c7b4-46cd-a809-d55e6fc731ad"
          }
        ],
        "meta": {
          "tag": [
            {
              "system": "http://example.com/tags",
              "code": "urgent-dff7107a"
            },
            {
              "system": "http://example.com/tags",
              "code": "flagged-dff7107a"
            }
          ],
          "security": [
            {
              "system": "http://terminology.hl7.org/CodeSystem/v3-Confidentiality",
              "code": "R"
            }
          ]
        }
      },
      "request": {
        "method": "POST",
        "url": "Patient"
      }
    },
    {
      "fullUrl": "urn:uuid:8435e3b8-ef14-4f9a-9804-979df01a2d1f",
      "resource": {
        "resourceType": "Patient",
        "active": false,
        "gender": "female",
        "birthDate": "2005-08-10",
        "name": [
          {
            "use": "official",
            "family": "Davis-dff7107a",
            "given": [
              "Alice"
            ]
          }
        ],
        "identifier": [
          {
            "system": "http://example.com/mrn",
            "value": "MRN-004-dff7107a"
          }
        ],
        "deceasedBoolean": false
      },
      "request": {
        "method": "POST",
        "url": "Patient"
      }
    },
    {
      "fullUrl": "urn:uuid:9170bfac-3b5d-4324-bdd1-48f36d57901e",
      "resource": {
        "resourceType": "Patient",
        "active": true,
        "gender": "other",
        "birthDate": "2000-03-01",
        "name": [
          {
            "use": "official",
            "family": "Garcia-dff7107a",
            "given": [
              "Alex",
              "M"
            ]
          }
        ],
        "identifier": [
          {
            "system": "http://example.com/mrn",
            "value": "MRN-005-dff7107a"
          }
        ],
        "telecom": [
          {
            "system": "email",
            "value": "alex.garcia-dff7107a@example.com"
          }
        ]
      },
      "request": {
        "method": "POST",
        "url": "Patient"
      }
    },
    {
      "fullUrl": "urn:uuid:04bb0d54-d2a7-466b-acff-3bc4df444df1",
      "resource": {
        "resourceType": "Patient",
        "active": true,
        "gender": "male",
        "birthDate": "1960-12-25",
        "name": [
          {
            "use": "official",
            "family": "Wilson-dff7107a",
            "given": [
              "George"
            ]
          }
        ],
        "identifier": [
          {
            "system": "http://example.com/mrn",
            "value": "MRN-006-dff7107a"
          }
        ],
        "deceasedDateTime": "2025-01-15T10:30:00Z"
      },
      "request": {
        "method": "POST",
        "url": "Patient"
      }
    },
    {
      "fullUrl": "urn:uuid:cfa6b586-30b0-431c-ab5b-48af3aff04f6",
      "resource": {
        "resourceType": "Patient",
        "active": true,
        "gender": "female",
        "birthDate": "1995-07-04",
        "name": [
          {
            "use": "official",
            "family": "Martinez-dff7107a",
            "given": [
              "Sofia",
              "Isabella"
            ]
          },
          {
            "use": "maiden",
            "family": "Lopez-dff7107a"
          }
        ],
        "identifier": [
          {
            "system": "http://example.com/mrn",
            "value": "MRN-007-dff7107a"
          },
          {
            "system": "http://example.com/passport",
            "value": "PP-007-dff7107a"
          }
        ],
        "telecom": [
          {
            "system": "phone",
            "value": "555-1007",
            "use": "mobile"
          },
          {
            "system": "phone",
            "value": "555-1008",
            "use": "home"
          },
          {
            "system": "email",
            "value": "sofia-dff7107a@example.com"
          }
        ],
        "address": [
          {
            "use": "home",
            "line": [
              "1000 Maple Dr"
            ],
            "city": "Capital City",
            "state": "CA",
            "postalCode": "90001",
            "country": "US"
          },
          {
            "use": "temp",
            "city": "TempCity",
            "state": "NY"
          }
        ],
        "contact": [
          {
            "relationship": [
              {
                "coding": [
                  {
                    "system": "http://terminology.hl7.org/CodeSystem/v2-0131",
                    "code": "N"
                  }
                ]
              }
            ],
            "name": {
              "family": "EmergencyContact-dff7107a",
              "given": [
                "Carlos"
              ]
            },
            "telecom": [
              {
                "system": "phone",
                "value": "555-9999"
              }
            ]
          }
        ]
      },
      "request": {
        "method": "POST",
        "url": "Patient"
      }
    },
    {
      "fullUrl": "urn:uuid:5ed65a93-2fca-4516-ab00-2c5d372f09f6",
      "resource": {
        "resourceType": "Encounter",
        "status": "finished",
        "class": {
          "system": "http://terminology.hl7.org/CodeSystem/v3-ActCode",
          "code": "AMB",
          "display": "Ambulatory-dff7107a"
        },
        "subject": {
          "reference": "urn:uuid:61353c18-d0bb-4ac6-9b22-7ecc899f6913"
        },
        "serviceProvider": {
          "reference": "urn:uuid:195eea60-8784-482c-aaa3-7d0693e7c18e"
        },
        "participant": [
          {
            "individual": {
              "reference": "urn:uuid:9b35ce1e-196a-4d80-9741-629336a99522"
            }
          }
        ],
        "period": {
          "start": "2025-01-10T08:00:00Z",
          "end": "2025-01-10T09:00:00Z"
        },
        "type": [
          {
            "coding": [
              {
                "system": "http://snomed.info/sct",
                "code": "308335008",
                "display": "OPD-dff7107a"
              }
            ]
          }
        ]
      },
      "request": {
        "method": "POST",
        "url": "Encounter"
      }
    },
    {
      "fullUrl": "urn:uuid:6309ca27-2452-4958-a604-ee47da351cd2",
      "resource": {
        "resourceType": "Encounter",
        "status": "finished",
        "class": {
          "system": "http://terminology.hl7.org/CodeSystem/v3-ActCode",
          "code": "IMP"
        },
        "subject": {
          "reference": "urn:uuid:61353c18-d0bb-4ac6-9b22-7ecc899f6913"
        },
        "serviceProvider": {
          "reference": "urn:uuid:195eea60-8784-482c-aaa3-7d0693e7c18e"
        },
        "period": {
          "start": "2025-02-01T10:00:00Z",
          "end": "2025-02-05T14:00:00Z"
        }
      },
      "request": {
        "method": "POST",
        "url": "Encounter"
      }
    },
    {
      "fullUrl": "urn:uuid:d5ec4b16-112c-47a6-9bf3-725d716392e7",
      "resource": {
        "resourceType": "Encounter",
        "status": "finished",
        "class": {
          "system": "http://terminology.hl7.org/CodeSystem/v3-ActCode",
          "code": "AMB"
        },
        "subject": {
          "reference": "urn:uuid:57735091-21b0-4650-b3a2-8e134ebc1d2c"
        },
        "serviceProvider": {
          "reference": "urn:uuid:195eea60-8784-482c-aaa3-7d0693e7c18e"
        },
        "participant": [
          {
            "individual": {
              "reference": "urn:uuid:d6967641-6de3-402b-a19b-51bc5bbe74cd"
            }
          }
        ],
        "period": {
          "start": "2025-03-15T14:00:00Z"
        }
      },
      "request": {
        "method": "POST",
        "url": "Encounter"
      }
    },
    {
      "fullUrl": "urn:uuid:87f73122-1d84-49ad-b62f-6e941de7de49",
      "resource": {
        "resourceType": "Encounter",
        "status": "in-progress",
        "class": {
          "system": "http://terminology.hl7.org/CodeSystem/v3-ActCode",
          "code": "EMER"
        },
        "subject": {
          "reference": "urn:uuid:e28323dd-2ca7-4ce9-b4fa-a7b4562364a4"
        },
        "serviceProvider": {
          "reference": "urn:uuid:195eea60-8784-482c-aaa3-7d0693e7c18e"
        },
        "period": {
          "start": "2026-02-25T10:00:00Z"
        }
      },
      "request": {
        "method": "POST",
        "url": "Encounter"
      }
    },
    {
      "fullUrl": "urn:uuid:80e956e1-1fda-4fd7-b803-6d9d254410e4",
      "resource": {
        "resourceType": "Encounter",
        "status": "planned",
        "class": {
          "system": "http://terminology.hl7.org/CodeSystem/v3-ActCode",
          "code": "AMB"
        },
        "subject": {
          "reference": "urn:uuid:8435e3b8-ef14-4f9a-9804-979df01a2d1f"
        },
        "period": {
          "start": "2026-03-01T09:00:00Z"
        }
      },
      "request": {
        "method": "POST",
        "url": "Encounter"
      }
    },
    {
      "fullUrl": "urn:uuid:08bf4b8c-9142-427c-b7b0-392cfd46a1ab",
      "resource": {
        "resourceType": "Encounter",
        "status": "finished",
        "class": {
          "system": "http://terminology.hl7.org/CodeSystem/v3-ActCode",
          "code": "AMB"
        },
        "subject": {
          "reference": "urn:uuid:cfa6b586-30b0-431c-ab5b-48af3aff04f6"
        },
        "serviceProvider": {
          "reference": "urn:uuid:4099a660-fd77-4b78-9d70-a60e93b77a9a"
        },
        "participant": [
          {
            "individual": {
              "reference": "urn:uuid:5ff07891-a142-43aa-af8f-cf98f76d8b67"
            }
          }
        ],
        "period": {
          "start": "2025-06-01T11:00:00Z",
          "end": "2025-06-01T12:00:00Z"
        }
      },
      "request": {
        "method": "POST",
        "url": "Encounter"
      }
    },
    {
      "fullUrl": "urn:uuid:6dd66a59-f09d-4d77-abe3-da8e18d18e5b",
      "resource": {
        "resourceType": "Condition",
        "clinicalStatus": {
          "coding": [
            {
              "system": "http://terminology.hl7.org/CodeSystem/condition-clinical",
              "code": "active"
            }
          ]
        },
        "verificationStatus": {
          "coding": [
            {
              "system": "http://terminology.hl7.org/CodeSystem/condition-ver-status",
              "code": "confirmed"
            }
          ]
        },
        "code": {
          "coding": [
            {
              "system": "http://snomed.info/sct",
              "code": "44054006",
              "display": "Type2DM-dff7107a"
            }
          ]
        },
        "subject": {
          "reference": "urn:uuid:61353c18-d0bb-4ac6-9b22-7ecc899f6913"
        },
        "encounter": {
          "reference": "urn:uuid:5ed65a93-2fca-4516-ab00-2c5d372f09f6"
        },
        "onsetDateTime": "2020-01-01"
      },
      "request": {
        "method": "POST",
        "url": "Condition"
      }
    },
    {
      "fullUrl": "urn:uuid:39ecf489-61b3-405b-8391-d9ba2a5e26d4",
      "resource": {
        "resourceType": "Condition",
        "clinicalStatus": {
          "coding": [
            {
              "system": "http://terminology.hl7.org/CodeSystem/condition-clinical",
              "code": "active"
            }
          ]
        },
        "verificationStatus": {
          "coding": [
            {
              "system": "http://terminology.hl7.org/CodeSystem/condition-ver-status",
              "code": "confirmed"
            }
          ]
        },
        "code": {
          "coding": [
            {
              "system": "http://snomed.info/sct",
              "code": "38341003",
              "display": "Hypertension-dff7107a"
            }
          ]
        },
        "subject": {
          "reference": "urn:uuid:61353c18-d0bb-4ac6-9b22-7ecc899f6913"
        },
        "onsetDateTime": "2018-06-15"
      },
      "request": {
        "method": "POST",
        "url": "Condition"
      }
    },
    {
      "fullUrl": "urn:uuid:5e18d3c1-4d66-4ce0-9045-703257cb8804",
      "resource": {
        "resourceType": "Condition",
        "clinicalStatus": {
          "coding": [
            {
              "system": "http://terminology.hl7.org/CodeSystem/condition-clinical",
              "code": "resolved"
            }
          ]
        },
        "code": {
          "coding": [
            {
              "system": "http://snomed.info/sct",
              "code": "195662009",
              "display": "Pneumonia-dff7107a"
            }
          ]
        },
        "subject": {
          "reference": "urn:uuid:57735091-21b0-4650-b3a2-8e134ebc1d2c"
        },
        "encounter": {
          "reference": "urn:uuid:d5ec4b16-112c-47a6-9bf3-725d716392e7"
        },
        "onsetDateTime": "2025-03-10",
        "abatementDateTime": "2025-03-25"
      },
      "request": {
        "method": "POST",
        "url": "Condition"
      }
    },
    {
      "fullUrl": "urn:uuid:e0390ed5-8489-4567-bd2d-2976892b9296",
      "resource": {
        "resourceType": "Condition",
        "clinicalStatus": {
          "coding": [
            {
              "system": "http://terminology.hl7.org/CodeSystem/condition-clinical",
              "code": "active"
            }
          ]
        },
        "code": {
          "coding": [
            {
              "system": "http://snomed.info/sct",
              "code": "73211009",
              "display": "DiabetesI-dff7107a"
            }
          ]
        },
        "subject": {
          "reference": "urn:uuid:e28323dd-2ca7-4ce9-b4fa-a7b4562364a4"
        },
        "onsetDateTime": "2010-05-01"
      },
      "request": {
        "method": "POST",
        "url": "Condition"
      }
    },
    {
      "fullUrl": "urn:uuid:98db28a9-4fc6-4312-be0b-2be8f3133ce5",
      "resource": {
        "resourceType": "Condition",
        "clinicalStatus": {
          "coding": [
            {
              "system": "http://terminology.hl7.org/CodeSystem/condition-clinical",
              "code": "active"
            }
          ]
        },
        "code": {
          "coding": [
            {
              "system": "http://snomed.info/sct",
              "code": "195967001",
              "display": "Asthma-dff7107a"
            }
          ]
        },
        "subject": {
          "reference": "urn:uuid:cfa6b586-30b0-431c-ab5b-48af3aff04f6"
        },
        "encounter": {
          "reference": "urn:uuid:08bf4b8c-9142-427c-b7b0-392cfd46a1ab"
        },
        "onsetDateTime": "2015-08-20"
      },
      "request": {
        "method": "POST",
        "url": "Condition"
      }
    },
    {
      "fullUrl": "urn:uuid:5aea738e-87a1-48e7-be58-cce4a5c4d597",
      "resource": {
        "resourceType": "Observation",
        "status": "final",
        "code": {
          "coding": [
            {
              "system": "http://loinc.org",
              "code": "29463-7",
              "display": "BodyWeight-dff7107a"
            }
          ]
        },
        "subject": {
          "reference": "urn:uuid:61353c18-d0bb-4ac6-9b22-7ecc899f6913"
        },
        "encounter": {
          "reference": "urn:uuid:5ed65a93-2fca-4516-ab00-2c5d372f09f6"
        },
        "valueQuantity": {
          "value": 75.5,
          "unit": "kg",
          "system": "http://unitsofmeasure.org",
          "code": "kg"
        },
        "effectiveDateTime": "2025-01-10T08:30:00Z",
        "category": [
          {
            "coding": [
              {
                "system": "http://terminology.hl7.org/CodeSystem/observation-category",
                "code": "vital-signs"
              }
            ]
          }
        ]
      },
      "request": {
        "method": "POST",
        "url": "Observation"
      }
    },
    {
      "fullUrl": "urn:uuid:2f1d4e4c-5110-41a5-85b3-9507d49be17a",
      "resource": {
        "resourceType": "Observation",
        "status": "final",
        "code": {
          "coding": [
            {
              "system": "http://loinc.org",
              "code": "8867-4",
              "display": "HeartRate-dff7107a"
            }
          ]
        },
        "subject": {
          "reference": "urn:uuid:61353c18-d0bb-4ac6-9b22-7ecc899f6913"
        },
        "encounter": {
          "reference": "urn:uuid:5ed65a93-2fca-4516-ab00-2c5d372f09f6"
        },
        "valueQuantity": {
          "value": 72,
          "unit": "/min",
          "system": "http://unitsofmeasure.org",
          "code": "/min"
        },
        "effectiveDateTime": "2025-01-10T08:30:00Z"
      },
      "request": {
        "method": "POST",
        "url": "Observation"
      }
    },
    {
      "fullUrl": "urn:uuid:5ee6adb0-ae52-4b9c-9ef2-5abfb9f877a9",
      "resource": {
        "resourceType": "Observation",
        "status": "final",
        "code": {
          "coding": [
            {
              "system": "http://loinc.org",
              "code": "85354-9",
              "display": "BP-dff7107a"
            }
          ]
        },
        "subject": {
          "reference": "urn:uuid:61353c18-d0bb-4ac6-9b22-7ecc899f6913"
        },
        "encounter": {
          "reference": "urn:uuid:6309ca27-2452-4958-a604-ee47da351cd2"
        },
        "component": [
          {
            "code": {
              "coding": [
                {
                  "system": "http://loinc.org",
                  "code": "8480-6"
                }
              ]
            },
            "valueQuantity": {
              "value": 120,
              "unit": "mmHg"
            }
          },
          {
            "code": {
              "coding": [
                {
                  "system": "http://loinc.org",
                  "code": "8462-4"
                }
              ]
            },
            "valueQuantity": {
              "value": 80,
              "unit": "mmHg"
            }
          }
        ],
        "effectiveDateTime": "2025-02-01T10:30:00Z"
      },
      "request": {
        "method": "POST",
        "url": "Observation"
      }
    },
    {
      "fullUrl": "urn:uuid:58a44dfa-3c85-461c-ae51-c4f16e32c102",
      "resource": {
        "resourceType": "Observation",
        "status": "final",
        "code": {
          "coding": [
            {
              "system": "http://loinc.org",
              "code": "2339-0",
              "display": "Glucose-dff7107a"
            }
          ]
        },
        "subject": {
          "reference": "urn:uuid:57735091-21b0-4650-b3a2-8e134ebc1d2c"
        },
        "encounter": {
          "reference": "urn:uuid:d5ec4b16-112c-47a6-9bf3-725d716392e7"
        },
        "valueQuantity": {
          "value": 95,
          "unit": "mg/dL"
        },
        "effectiveDateTime": "2025-03-15T14:30:00Z",
        "interpretation": [
          {
            "coding": [
              {
                "system": "http://terminology.hl7.org/CodeSystem/v3-ObservationInterpretation",
                "code": "N",
                "display": "Normal"
              }
            ]
          }
        ]
      },
      "request": {
        "method": "POST",
        "url": "Observation"
      }
    },
    {
      "fullUrl": "urn:uuid:32533218-04fb-45bc-9954-d343333c7e5e",
      "resource": {
        "resourceType": "Observation",
        "status": "final",
        "code": {
          "coding": [
            {
              "system": "http://loinc.org",
              "code": "718-7",
              "display": "Hemoglobin-dff7107a"
            }
          ]
        },
        "subject": {
          "reference": "urn:uuid:e28323dd-2ca7-4ce9-b4fa-a7b4562364a4"
        },
        "valueQuantity": {
          "value": 14.2,
          "unit": "g/dL"
        },
        "effectiveDateTime": "2025-04-01"
      },
      "request": {
        "method": "POST",
        "url": "Observation"
      }
    },
    {
      "fullUrl": "urn:uuid:1be22df4-aacb-47e7-9e09-6880c7bab3e3",
      "resource": {
        "resourceType": "Observation",
        "status": "preliminary",
        "code": {
          "coding": [
            {
              "system": "http://loinc.org",
              "code": "6690-2",
              "display": "WBC-dff7107a"
            }
          ]
        },
        "subject": {
          "reference": "urn:uuid:e28323dd-2ca7-4ce9-b4fa-a7b4562364a4"
        },
        "encounter": {
          "reference": "urn:uuid:87f73122-1d84-49ad-b62f-6e941de7de49"
        },
        "valueQuantity": {
          "value": 8500,
          "unit": "/uL"
        },
        "effectiveDateTime": "2026-02-25T10:30:00Z"
      },
      "request": {
        "method": "POST",
        "url": "Observation"
      }
    },
    {
      "fullUrl": "urn:uuid:5de9fc5d-477f-4083-a407-30c7fe96a1f5",
      "resource": {
        "resourceType": "Observation",
        "status": "final",
        "code": {
          "coding": [
            {
              "system": "http://loinc.org",
              "code": "39156-5",
              "display": "BMI-dff7107a"
            }
          ]
        },
        "subject": {
          "reference": "urn:uuid:cfa6b586-30b0-431c-ab5b-48af3aff04f6"
        },
        "encounter": {
          "reference": "urn:uuid:08bf4b8c-9142-427c-b7b0-392cfd46a1ab"
        },
        "valueQuantity": {
          "value": 22.1,
          "unit": "kg/m2"
        },
        "effectiveDateTime": "2025-06-01T11:30:00Z"
      },
      "request": {
        "method": "POST",
        "url": "Observation"
      }
    },
    {
      "fullUrl": "urn:uuid:e8d306b3-4c9f-4ccb-a00b-ab90e99c2508",
      "resource": {
        "resourceType": "Observation",
        "status": "final",
        "code": {
          "coding": [
            {
              "system": "http://loinc.org",
              "code": "8310-5",
              "display": "BodyTemp-dff7107a"
            }
          ]
        },
        "subject": {
          "reference": "urn:uuid:cfa6b586-30b0-431c-ab5b-48af3aff04f6"
        },
        "valueQuantity": {
          "value": 37.2,
          "unit": "Cel"
        },
        "effectiveDateTime": "2025-06-01T11:35:00Z"
      },
      "request": {
        "method": "POST",
        "url": "Observation"
      }
    },
    {
      "fullUrl": "urn:uuid:b61ff56f-d19d-4286-9182-91fc9554be1d",
      "resource": {
        "resourceType": "DiagnosticReport",
        "status": "final",
        "code": {
          "coding": [
            {
              "system": "http://loinc.org",
              "code": "58410-2",
              "display": "CBC-dff7107a"
            }
          ]
        },
        "subject": {
          "reference": "urn:uuid:61353c18-d0bb-4ac6-9b22-7ecc899f6913"
        },
        "encounter": {
          "reference": "urn:uuid:5ed65a93-2fca-4516-ab00-2c5d372f09f6"
        },
        "result": [
          {
            "reference": "urn:uuid:5aea738e-87a1-48e7-be58-cce4a5c4d597"
          },
          {
            "reference": "urn:uuid:2f1d4e4c-5110-41a5-85b3-9507d49be17a"
          }
        ],
        "effectiveDateTime": "2025-01-10T09:00:00Z",
        "issued": "2025-01-10T10:00:00Z"
      },
      "request": {
        "method": "POST",
        "url": "DiagnosticReport"
      }
    },
    {
      "fullUrl": "urn:uuid:3ad84723-f723-43d5-afd1-3e915bc12867",
      "resource": {
        "resourceType": "DiagnosticReport",
        "status": "final",
        "code": {
          "coding": [
            {
              "system": "http://loinc.org",
              "code": "24323-8",
              "display": "CMP-dff7107a"
            }
          ]
        },
        "subject": {
          "reference": "urn:uuid:61353c18-d0bb-4ac6-9b22-7ecc899f6913"
        },
        "encounter": {
          "reference": "urn:uuid:6309ca27-2452-4958-a604-ee47da351cd2"
        },
        "result": [
          {
            "reference": "urn:uuid:5ee6adb0-ae52-4b9c-9ef2-5abfb9f877a9"
          }
        ],
        "effectiveDateTime": "2025-02-01T11:00:00Z"
      },
      "request": {
        "method": "POST",
        "url": "DiagnosticReport"
      }
    },
    {
      "fullUrl": "urn:uuid:79901ced-bed0-4db6-bf78-7ef73a71d5d9",
      "resource": {
        "resourceType": "DiagnosticReport",
        "status": "final",
        "code": {
          "coding": [
            {
              "system": "http://loinc.org",
              "code": "2339-0",
              "display": "GlucoseReport-dff7107a"
            }
          ]
        },
        "subject": {
          "reference": "urn:uuid:57735091-21b0-4650-b3a2-8e134ebc1d2c"
        },
        "result": [
          {
            "reference": "urn:uuid:58a44dfa-3c85-461c-ae51-c4f16e32c102"
          }
        ],
        "effectiveDateTime": "2025-03-15T15:00:00Z"
      },
      "request": {
        "method": "POST",
        "url": "DiagnosticReport"
      }
    },
    {
      "fullUrl": "urn:uuid:3dcbed92-a9f9-4e99-9bae-e21d64424425",
      "resource": {
        "resourceType": "DiagnosticReport",
        "status": "preliminary",
        "code": {
          "coding": [
            {
              "system": "http://loinc.org",
              "code": "58410-2",
              "display": "CBC2-dff7107a"
            }
          ]
        },
        "subject": {
          "reference": "urn:uuid:e28323dd-2ca7-4ce9-b4fa-a7b4562364a4"
        },
        "result": [
          {
            "reference": "urn:uuid:32533218-04fb-45bc-9954-d343333c7e5e"
          },
          {
            "reference": "urn:uuid:1be22df4-aacb-47e7-9e09-6880c7bab3e3"
          }
        ],
        "effectiveDateTime": "2026-02-25T11:00:00Z"
      },
      "request": {
        "method": "POST",
        "url": "DiagnosticReport"
      }
    },
    {
      "fullUrl": "urn:uuid:e8d32d3d-fa2b-46a2-a575-f71faec676b2",
      "resource": {
        "resourceType": "DiagnosticReport",
        "status": "final",
        "code": {
          "coding": [
            {
              "system": "http://loinc.org",
              "code": "55399-0",
              "display": "Vitals-dff7107a"
            }
          ]
        },
        "subject": {
          "reference": "urn:uuid:cfa6b586-30b0-431c-ab5b-48af3aff04f6"
        },
        "encounter": {
          "reference": "urn:uuid:08bf4b8c-9142-427c-b7b0-392cfd46a1ab"
        },
        "result": [
          {
            "reference": "urn:uuid:5de9fc5d-477f-4083-a407-30c7fe96a1f5"
          },
          {
            "reference": "urn:uuid:e8d306b3-4c9f-4ccb-a00b-ab90e99c2508"
          }
        ],
        "effectiveDateTime": "2025-06-01T12:00:00Z"
      },
      "request": {
        "method": "POST",
        "url": "DiagnosticReport"
      }
    },
    {
      "fullUrl": "urn:uuid:d9eddb58-ec32-43d4-ae4c-13767d58e7c5",
      "resource": {
        "resourceType": "MedicationRequest",
        "status": "active",
        "intent": "order",
        "medicationReference": {
          "reference": "urn:uuid:a7d524d4-3702-41dc-8af2-d4fa3eff4773"
        },
        "subject": {
          "reference": "urn:uuid:61353c18-d0bb-4ac6-9b22-7ecc899f6913"
        },
        "encounter": {
          "reference": "urn:uuid:5ed65a93-2fca-4516-ab00-2c5d372f09f6"
        },
        "requester": {
          "reference": "urn:uuid:9b35ce1e-196a-4d80-9741-629336a99522"
        },
        "authoredOn": "2025-01-10",
        "dosageInstruction": [
          {
            "text": "Take 500mg PRN-dff7107a",
            "timing": {
              "repeat": {
                "frequency": 3,
                "period": 1,
                "periodUnit": "d"
              }
            }
          }
        ]
      },
      "request": {
        "method": "POST",
        "url": "MedicationRequest"
      }
    },
    {
      "fullUrl": "urn:uuid:68273cf7-47dc-46e2-9e9a-95fa02b71b46",
      "resource": {
        "resourceType": "MedicationRequest",
        "status": "active",
        "intent": "order",
        "medicationReference": {
          "reference": "urn:uuid:138149d4-3b32-4aa3-8073-640c6ec8a1c8"
        },
        "subject": {
          "reference": "urn:uuid:61353c18-d0bb-4ac6-9b22-7ecc899f6913"
        },
        "requester": {
          "reference": "urn:uuid:9b35ce1e-196a-4d80-9741-629336a99522"
        },
        "authoredOn": "2025-02-01",
        "dosageInstruction": [
          {
            "text": "250mg TID-dff7107a"
          }
        ]
      },
      "request": {
        "method": "POST",
        "url": "MedicationRequest"
      }
    },
    {
      "fullUrl": "urn:uuid:2cb04556-6130-40d8-bedc-d8345e51a823",
      "resource": {
        "resourceType": "MedicationRequest",
        "status": "active",
        "intent": "order",
        "medicationReference": {
          "reference": "urn:uuid:9d36bb68-9833-46b6-afd5-a1c50be9531c"
        },
        "subject": {
          "reference": "urn:uuid:57735091-21b0-4650-b3a2-8e134ebc1d2c"
        },
        "requester": {
          "reference": "urn:uuid:d6967641-6de3-402b-a19b-51bc5bbe74cd"
        },
        "authoredOn": "2025-03-15"
      },
      "request": {
        "method": "POST",
        "url": "MedicationRequest"
      }
    },
    {
      "fullUrl": "urn:uuid:dcf0815a-2631-4b70-b1c5-bb4bb4e54c18",
      "resource": {
        "resourceType": "MedicationRequest",
        "status": "stopped",
        "intent": "order",
        "medicationReference": {
          "reference": "urn:uuid:6b222f93-2257-472f-a402-0807db9beb01"
        },
        "subject": {
          "reference": "urn:uuid:e28323dd-2ca7-4ce9-b4fa-a7b4562364a4"
        },
        "requester": {
          "reference": "urn:uuid:95688fba-c7b4-46cd-a809-d55e6fc731ad"
        },
        "authoredOn": "2025-04-01"
      },
      "request": {
        "method": "POST",
        "url": "MedicationRequest"
      }
    },
    {
      "fullUrl": "urn:uuid:4c362005-d928-4077-b290-36a05b54583f",
      "resource": {
        "resourceType": "MedicationRequest",
        "status": "active",
        "intent": "plan",
        "medicationReference": {
          "reference": "urn:uuid:1938ba64-afd1-4d7d-9f89-d694aa089b53"
        },
        "subject": {
          "reference": "urn:uuid:cfa6b586-30b0-431c-ab5b-48af3aff04f6"
        },
        "encounter": {
          "reference": "urn:uuid:08bf4b8c-9142-427c-b7b0-392cfd46a1ab"
        },
        "requester": {
          "reference": "urn:uuid:5ff07891-a142-43aa-af8f-cf98f76d8b67"
        },
        "authoredOn": "2025-06-01"
      },
      "request": {
        "method": "POST",
        "url": "MedicationRequest"
      }
    },
    {
      "fullUrl": "urn:uuid:a7d524d4-3702-41dc-8af2-d4fa3eff4773",
      "resource": {
        "resourceType": "Medication",
        "code": {
          "coding": [
            {
              "system": "http://www.nlm.nih.gov/research/umls/rxnorm",
              "code": "1049502",
              "display": "Acetaminophen-dff7107a"
            }
          ]
        },
        "status": "active"
      },
      "request": {
        "method": "POST",
        "url": "Medication"
      }
    },
    {
      "fullUrl": "urn:uuid:138149d4-3b32-4aa3-8073-640c6ec8a1c8",
      "resource": {
        "resourceType": "Medication",
        "code": {
          "coding": [
            {
              "system": "http://www.nlm.nih.gov/research/umls/rxnorm",
              "code": "197361",
              "display": "Amoxicillin-dff7107a"
            }
          ]
        },
        "status": "active",
        "manufacturer": {
          "reference": "urn:uuid:7cebbbb7-846a-443d-853e-cd880aec7498"
        }
      },
      "request": {
        "method": "POST",
        "url": "Medication"
      }
    },
    {
      "fullUrl": "urn:uuid:9d36bb68-9833-46b6-afd5-a1c50be9531c",
      "resource": {
        "resourceType": "Medication",
        "code": {
          "coding": [
            {
              "system": "http://www.nlm.nih.gov/research/umls/rxnorm",
              "code": "310965",
              "display": "Lisinopril-dff7107a"
            }
          ]
        },
        "status": "active"
      },
      "request": {
        "method": "POST",
        "url": "Medication"
      }
    },
    {
      "fullUrl": "urn:uuid:6b222f93-2257-472f-a402-0807db9beb01",
      "resource": {
        "resourceType": "Medication",
        "code": {
          "coding": [
            {
              "system": "http://www.nlm.nih.gov/research/umls/rxnorm",
              "code": "860975",
              "display": "Metformin-dff7107a"
            }
          ]
        },
        "status": "active"
      },
      "request": {
        "method": "POST",
        "url": "Medication"
      }
    },
    {
      "fullUrl": "urn:uuid:1938ba64-afd1-4d7d-9f89-d694aa089b53",
      "resource": {
        "resourceType": "Medication",
        "code": {
          "coding": [
            {
              "system": "http://www.nlm.nih.gov/research/umls/rxnorm",
              "code": "198440",
              "display": "Omeprazole-dff7107a"
            }
          ]
        },
        "status": "inactive"
      },
      "request": {
        "method": "POST",
        "url": "Medication"
      }
    },
    {
      "fullUrl": "urn:uuid:9be45c46-c8cd-4be0-839d-e342b998e712",
      "resource": {
        "resourceType": "AllergyIntolerance",
        "clinicalStatus": {
          "coding": [
            {
              "system": "http://terminology.hl7.org/CodeSystem/allergyintolerance-clinical",
              "code": "active"
            }
          ]
        },
        "verificationStatus": {
          "coding": [
            {
              "system": "http://terminology.hl7.org/CodeSystem/allergyintolerance-verification",
              "code": "confirmed"
            }
          ]
        },
        "type": "allergy",
        "category": [
          "medication"
        ],
        "code": {
          "coding": [
            {
              "system": "http://snomed.info/sct",
              "code": "387458008",
              "display": "Aspirin-dff7107a"
            }
          ]
        },
        "patient": {
          "reference": "urn:uuid:61353c18-d0bb-4ac6-9b22-7ecc899f6913"
        },
        "onsetDateTime": "2015-01-01",
        "reaction": [
          {
            "manifestation": [
              {
                "coding": [
                  {
                    "system": "http://snomed.info/sct",
                    "code": "271807003",
                    "display": "Rash"
                  }
                ]
              }
            ],
            "severity": "moderate"
          }
        ]
      },
      "request": {
        "method": "POST",
        "url": "AllergyIntolerance"
      }
    },
    {
      "fullUrl": "urn:uuid:135dc51e-aad1-4bfc-918d-a167a8cbffd4",
      "resource": {
        "resourceType": "AllergyIntolerance",
        "clinicalStatus": {
          "coding": [
            {
              "system": "http://terminology.hl7.org/CodeSystem/allergyintolerance-clinical",
              "code": "active"
            }
          ]
        },
        "type": "allergy",
        "category": [
          "food"
        ],
        "code": {
          "coding": [
            {
              "system": "http://snomed.info/sct",
              "code": "91935009",
              "display": "Peanut-dff7107a"
            }
          ]
        },
        "patient": {
          "reference": "urn:uuid:61353c18-d0bb-4ac6-9b22-7ecc899f6913"
        }
      },
      "request": {
        "method": "POST",
        "url": "AllergyIntolerance"
      }
    },
    {
      "fullUrl": "urn:uuid:b661dfec-9e17-4334-aaf9-a2acc1f47bc0",
      "resource": {
        "resourceType": "AllergyIntolerance",
        "clinicalStatus": {
          "coding": [
            {
              "system": "http://terminology.hl7.org/CodeSystem/allergyintolerance-clinical",
              "code": "active"
            }
          ]
        },
        "type": "intolerance",
        "category": [
          "medication"
        ],
        "code": {
          "coding": [
            {
              "system": "http://snomed.info/sct",
              "code": "372687004",
              "display": "Penicillin-dff7107a"
            }
          ]
        },
        "patient": {
          "reference": "urn:uuid:57735091-21b0-4650-b3a2-8e134ebc1d2c"
        }
      },
      "request": {
        "method": "POST",
        "url": "AllergyIntolerance"
      }
    },
    {
      "fullUrl": "urn:uuid:da72df52-84b2-4955-b85e-16a434e1a8e0",
      "resource": {
        "resourceType": "AllergyIntolerance",
        "clinicalStatus": {
          "coding": [
            {
              "system": "http://terminology.hl7.org/CodeSystem/allergyintolerance-clinical",
              "code": "resolved"
            }
          ]
        },
        "code": {
          "coding": [
            {
              "system": "http://snomed.info/sct",
              "code": "264295007",
              "display": "Latex-dff7107a"
            }
          ]
        },
        "patient": {
          "reference": "urn:uuid:e28323dd-2ca7-4ce9-b4fa-a7b4562364a4"
        }
      },
      "request": {
        "method": "POST",
        "url": "AllergyIntolerance"
      }
    },
    {
      "fullUrl": "urn:uuid:aecbb099-32ff-4c03-97a2-531dc711134a",
      "resource": {
        "resourceType": "AllergyIntolerance",
        "clinicalStatus": {
          "coding": [
            {
              "system": "http://terminology.hl7.org/CodeSystem/allergyintolerance-clinical",
              "code": "active"
            }
          ]
        },
        "type": "allergy",
        "category": [
          "environment"
        ],
        "code": {
          "coding": [
            {
              "system": "http://snomed.info/sct",
              "code": "256259004",
              "display": "Pollen-dff7107a"
            }
          ]
        },
        "patient": {
          "reference": "urn:uuid:cfa6b586-30b0-431c-ab5b-48af3aff04f6"
        }
      },
      "request": {
        "method": "POST",
        "url": "AllergyIntolerance"
      }
    },
    {
      "fullUrl": "urn:uuid:add25526-45c3-4578-8f03-c7a9e60e4978",
      "resource": {
        "resourceType": "Procedure",
        "status": "completed",
        "code": {
          "coding": [
            {
              "system": "http://snomed.info/sct",
              "code": "80146002",
              "display": "Appendectomy-dff7107a"
            }
          ]
        },
        "subject": {
          "reference": "urn:uuid:61353c18-d0bb-4ac6-9b22-7ecc899f6913"
        },
        "encounter": {
          "reference": "urn:uuid:6309ca27-2452-4958-a604-ee47da351cd2"
        },
        "performedDateTime": "2025-02-03T14:00:00Z",
        "performer": [
          {
            "actor": {
              "reference": "urn:uuid:95688fba-c7b4-46cd-a809-d55e6fc731ad"
            }
          }
        ]
      },
      "request": {
        "method": "POST",
        "url": "Procedure"
      }
    },
    {
      "fullUrl": "urn:uuid:5ad7f355-7fda-45df-8ffd-7278b27cd467",
      "resource": {
        "resourceType": "Procedure",
        "status": "completed",
        "code": {
          "coding": [
            {
              "system": "http://snomed.info/sct",
              "code": "232717009",
              "display": "Coronography-dff7107a"
            }
          ]
        },
        "subject": {
          "reference": "urn:uuid:61353c18-d0bb-4ac6-9b22-7ecc899f6913"
        },
        "performedPeriod": {
          "start": "2025-02-04T08:00:00Z",
          "end": "2025-02-04T10:00:00Z"
        }
      },
      "request": {
        "method": "POST",
        "url": "Procedure"
      }
    },
    {
      "fullUrl": "urn:uuid:4486808c-87a0-4932-8708-77367b5d15cb",
      "resource": {
        "resourceType": "Procedure",
        "status": "completed",
        "code": {
          "coding": [
            {
              "system": "http://snomed.info/sct",
              "code": "36969009",
              "display": "BloodDraw-dff7107a"
            }
          ]
        },
        "subject": {
          "reference": "urn:uuid:57735091-21b0-4650-b3a2-8e134ebc1d2c"
        },
        "encounter": {
          "reference": "urn:uuid:d5ec4b16-112c-47a6-9bf3-725d716392e7"
        },
        "performedDateTime": "2025-03-15T14:15:00Z"
      },
      "request": {
        "method": "POST",
        "url": "Procedure"
      }
    },
    {
      "fullUrl": "urn:uuid:f2786ff5-c71b-4f07-93d2-aa23153e8180",
      "resource": {
        "resourceType": "Procedure",
        "status": "in-progress",
        "code": {
          "coding": [
            {
              "system": "http://snomed.info/sct",
              "code": "418891003",
              "display": "Dressing-dff7107a"
            }
          ]
        },
        "subject": {
          "reference": "urn:uuid:e28323dd-2ca7-4ce9-b4fa-a7b4562364a4"
        },
        "encounter": {
          "reference": "urn:uuid:87f73122-1d84-49ad-b62f-6e941de7de49"
        },
        "performedDateTime": "2026-02-25T11:00:00Z"
      },
      "request": {
        "method": "POST",
        "url": "Procedure"
      }
    },
    {
      "fullUrl": "urn:uuid:05814956-5179-49b5-85d7-0da224bca0c3",
      "resource": {
        "resourceType": "Procedure",
        "status": "completed",
        "code": {
          "coding": [
            {
              "system": "http://snomed.info/sct",
              "code": "274025005",
              "display": "EKG-dff7107a"
            }
          ]
        },
        "subject": {
          "reference": "urn:uuid:cfa6b586-30b0-431c-ab5b-48af3aff04f6"
        },
        "encounter": {
          "reference": "urn:uuid:08bf4b8c-9142-427c-b7b0-392cfd46a1ab"
        },
        "performedDateTime": "2025-06-01T11:45:00Z"
      },
      "request": {
        "method": "POST",
        "url": "Procedure"
      }
    },
    {
      "fullUrl": "urn:uuid:484c992c-dddf-47aa-b923-5dedcdcb1449",
      "resource": {
        "resourceType": "ServiceRequest",
        "status": "active",
        "intent": "order",
        "code": {
          "coding": [
            {
              "system": "http://snomed.info/sct",
              "code": "26604007",
              "display": "FBC-dff7107a"
            }
          ]
        },
        "subject": {
          "reference": "urn:uuid:61353c18-d0bb-4ac6-9b22-7ecc899f6913"
        },
        "encounter": {
          "reference": "urn:uuid:5ed65a93-2fca-4516-ab00-2c5d372f09f6"
        },
        "requester": {
          "reference": "urn:uuid:9b35ce1e-196a-4d80-9741-629336a99522"
        },
        "authoredOn": "2025-01-10"
      },
      "request": {
        "method": "POST",
        "url": "ServiceRequest"
      }
    },
    {
      "fullUrl": "urn:uuid:cad03129-9623-429b-8ad5-3acffe5df974",
      "resource": {
        "resourceType": "ServiceRequest",
        "status": "completed",
        "intent": "order",
        "code": {
          "coding": [
            {
              "system": "http://snomed.info/sct",
              "code": "77477000",
              "display": "CTScan-dff7107a"
            }
          ]
        },
        "subject": {
          "reference": "urn:uuid:61353c18-d0bb-4ac6-9b22-7ecc899f6913"
        },
        "encounter": {
          "reference": "urn:uuid:6309ca27-2452-4958-a604-ee47da351cd2"
        },
        "authoredOn": "2025-02-01"
      },
      "request": {
        "method": "POST",
        "url": "ServiceRequest"
      }
    },
    {
      "fullUrl": "urn:uuid:ebc973d6-7007-4ef2-a15b-a9ffe4f6bb38",
      "resource": {
        "resourceType": "ServiceRequest",
        "status": "active",
        "intent": "order",
        "code": {
          "coding": [
            {
              "system": "http://snomed.info/sct",
              "code": "104001",
              "display": "Excision-dff7107a"
            }
          ]
        },
        "subject": {
          "reference": "urn:uuid:57735091-21b0-4650-b3a2-8e134ebc1d2c"
        },
        "authoredOn": "2025-03-15"
      },
      "request": {
        "method": "POST",
        "url": "ServiceRequest"
      }
    },
    {
      "fullUrl": "urn:uuid:b4d683da-a185-4df8-8913-2df3b5f2a5c6",
      "resource": {
        "resourceType": "ServiceRequest",
        "status": "active",
        "intent": "order",
        "code": {
          "coding": [
            {
              "system": "http://snomed.info/sct",
              "code": "252275004",
              "display": "Imaging-dff7107a"
            }
          ]
        },
        "subject": {
          "reference": "urn:uuid:e28323dd-2ca7-4ce9-b4fa-a7b4562364a4"
        },
        "encounter": {
          "reference": "urn:uuid:87f73122-1d84-49ad-b62f-6e941de7de49"
        },
        "authoredOn": "2026-02-25"
      },
      "request": {
        "method": "POST",
        "url": "ServiceRequest"
      }
    },
    {
      "fullUrl": "urn:uuid:d856f9c9-c341-4d25-b711-a7055bed7348",
      "resource": {
        "resourceType": "ServiceRequest",
        "status": "active",
        "intent": "plan",
        "code": {
          "coding": [
            {
              "system": "http://snomed.info/sct",
              "code": "409063005",
              "display": "Counseling-dff7107a"
            }
          ]
        },
        "subject": {
          "reference": "urn:uuid:cfa6b586-30b0-431c-ab5b-48af3aff04f6"
        },
        "authoredOn": "2025-06-01"
      },
      "request": {
        "method": "POST",
        "url": "ServiceRequest"
      }
    },
    {
      "fullUrl": "urn:uuid:1fd3b977-7249-4e7d-99bb-71bbdbc2c42f",
      "resource": {
        "resourceType": "CarePlan",
        "status": "active",
        "intent": "plan",
        "title": "DM Management-dff7107a",
        "subject": {
          "reference": "urn:uuid:61353c18-d0bb-4ac6-9b22-7ecc899f6913"
        },
        "encounter": {
          "reference": "urn:uuid:5ed65a93-2fca-4516-ab00-2c5d372f09f6"
        },
        "addresses": [
          {
            "reference": "urn:uuid:6dd66a59-f09d-4d77-abe3-da8e18d18e5b"
          }
        ],
        "category": [
          {
            "coding": [
              {
                "system": "http://hl7.org/fhir/us/core/CodeSystem/careplan-category",
                "code": "assess-plan"
              }
            ]
          }
        ]
      },
      "request": {
        "method": "POST",
        "url": "CarePlan"
      }
    },
    {
      "fullUrl": "urn:uuid:c40f402e-342e-4a93-a3df-c08137b55be2",
      "resource": {
        "resourceType": "CarePlan",
        "status": "active",
        "intent": "plan",
        "title": "HTN Management-dff7107a",
        "subject": {
          "reference": "urn:uuid:61353c18-d0bb-4ac6-9b22-7ecc899f6913"
        },
        "addresses": [
          {
            "reference": "urn:uuid:39ecf489-61b3-405b-8391-d9ba2a5e26d4"
          }
        ]
      },
      "request": {
        "method": "POST",
        "url": "CarePlan"
      }
    },
    {
      "fullUrl": "urn:uuid:797e5e65-e556-4a57-8b26-4a83ceed1493",
      "resource": {
        "resourceType": "CarePlan",
        "status": "completed",
        "intent": "plan",
        "title": "Pneumonia Recovery-dff7107a",
        "subject": {
          "reference": "urn:uuid:57735091-21b0-4650-b3a2-8e134ebc1d2c"
        },
        "addresses": [
          {
            "reference": "urn:uuid:5e18d3c1-4d66-4ce0-9045-703257cb8804"
          }
        ]
      },
      "request": {
        "method": "POST",
        "url": "CarePlan"
      }
    },
    {
      "fullUrl": "urn:uuid:37e5cafc-1b7c-4276-8c72-ac40698dca95",
      "resource": {
        "resourceType": "CarePlan",
        "status": "active",
        "intent": "plan",
        "title": "DM1 Care-dff7107a",
        "subject": {
          "reference": "urn:uuid:e28323dd-2ca7-4ce9-b4fa-a7b4562364a4"
        },
        "addresses": [
          {
            "reference": "urn:uuid:e0390ed5-8489-4567-bd2d-2976892b9296"
          }
        ]
      },
      "request": {
        "method": "POST",
        "url": "CarePlan"
      }
    },
    {
      "fullUrl": "urn:uuid:2fb1087b-cc6d-4732-be5c-97f8bd5f7d33",
      "resource": {
        "resourceType": "CarePlan",
        "status": "active",
        "intent": "plan",
        "title": "Asthma Action-dff7107a",
        "subject": {
          "reference": "urn:uuid:cfa6b586-30b0-431c-ab5b-48af3aff04f6"
        },
        "encounter": {
          "reference": "urn:uuid:08bf4b8c-9142-427c-b7b0-392cfd46a1ab"
        },
        "addresses": [
          {
            "reference": "urn:uuid:98db28a9-4fc6-4312-be0b-2be8f3133ce5"
          }
        ]
      },
      "request": {
        "method": "POST",
        "url": "CarePlan"
      }
    },
    {
      "fullUrl": "urn:uuid:26f71bbe-aa79-4ecd-91eb-9e8f379be53a",
      "resource": {
        "resourceType": "Immunization",
        "status": "completed",
        "vaccineCode": {
          "coding": [
            {
              "system": "http://hl7.org/fhir/sid/cvx",
              "code": "208",
              "display": "COVID19-dff7107a"
            }
          ]
        },
        "patient": {
          "reference": "urn:uuid:61353c18-d0bb-4ac6-9b22-7ecc899f6913"
        },
        "occurrenceDateTime": "2025-01-15T09:00:00Z",
        "encounter": {
          "reference": "urn:uuid:5ed65a93-2fca-4516-ab00-2c5d372f09f6"
        }
      },
      "request": {
        "method": "POST",
        "url": "Immunization"
      }
    },
    {
      "fullUrl": "urn:uuid:0d1bff09-4a2a-4347-a5da-2598f3fe3375",
      "resource": {
        "resourceType": "Immunization",
        "status": "completed",
        "vaccineCode": {
          "coding": [
            {
              "system": "http://hl7.org/fhir/sid/cvx",
              "code": "141",
              "display": "Influenza-dff7107a"
            }
          ]
        },
        "patient": {
          "reference": "urn:uuid:61353c18-d0bb-4ac6-9b22-7ecc899f6913"
        },
        "occurrenceDateTime": "2025-10-01"
      },
      "request": {
        "method": "POST",
        "url": "Immunization"
      }
    },
    {
      "fullUrl": "urn:uuid:9a8e1dc9-e7d3-404b-8b73-830a6a727c36",
      "resource": {
        "resourceType": "Immunization",
        "status": "completed",
        "vaccineCode": {
          "coding": [
            {
              "system": "http://hl7.org/fhir/sid/cvx",
              "code": "08",
              "display": "HepB-dff7107a"
            }
          ]
        },
        "patient": {
          "reference": "urn:uuid:57735091-21b0-4650-b3a2-8e134ebc1d2c"
        },
        "occurrenceDateTime": "2025-04-01"
      },
      "request": {
        "method": "POST",
        "url": "Immunization"
      }
    },
    {
      "fullUrl": "urn:uuid:ec9c033c-e3b1-4f61-9b87-1ad4eda81982",
      "resource": {
        "resourceType": "Immunization",
        "status": "not-done",
        "vaccineCode": {
          "coding": [
            {
              "system": "http://hl7.org/fhir/sid/cvx",
              "code": "03",
              "display": "MMR-dff7107a"
            }
          ]
        },
        "patient": {
          "reference": "urn:uuid:8435e3b8-ef14-4f9a-9804-979df01a2d1f"
        },
        "occurrenceDateTime": "2025-05-01",
        "statusReason": {
          "coding": [
            {
              "system": "http://terminology.hl7.org/CodeSystem/v3-ActReason",
              "code": "MEDPREC"
            }
          ]
        }
      },
      "request": {
        "method": "POST",
        "url": "Immunization"
      }
    },
    {
      "fullUrl": "urn:uuid:5884b646-3a97-4ea0-bbcb-fc9c01a2aa70",
      "resource": {
        "resourceType": "Immunization",
        "status": "completed",
        "vaccineCode": {
          "coding": [
            {
              "system": "http://hl7.org/fhir/sid/cvx",
              "code": "113",
              "display": "Tdap-dff7107a"
            }
          ]
        },
        "patient": {
          "reference": "urn:uuid:cfa6b586-30b0-431c-ab5b-48af3aff04f6"
        },
        "occurrenceDateTime": "2025-06-01",
        "encounter": {
          "reference": "urn:uuid:08bf4b8c-9142-427c-b7b0-392cfd46a1ab"
        }
      },
      "request": {
        "method": "POST",
        "url": "Immunization"
      }
    }
  ]
}