{
  "resourceType": "Bundle",
  "type": "transaction",
  "entry": [
    {
      "fullUrl": "urn:uuid:c718324a-f138-4993-a425-45e47113669f",
      "resource": {
        "resourceType": "Organization",
        "name": "Central Hospital-e9593de1",
        "identifier": [
          {
            "system": "http://example.com/org",
            "value": "ORG-001-e9593de1"
          }
        ],
        "type": [
          {
            "coding": [
              {
                "system": "http://terminology.hl7.org/CodeSystem/organization-type",
                "code": "prov"
              }
            ]
          }
        ],
        "telecom": [
          {
            "system": "phone",
            "value": "555-0100"
          }
        ],
        "address": [
          {
            "line": [
              "100 Main St"
            ],
            "city": "Springfield",
            "state": "IL",
            "postalCode": "62701",
            "country": "US"
          }
        ]
      },
      "request": {
        "method": "POST",
        "url": "Organization"
      }
    },
    {
      "fullUrl": "urn:uuid:29d81ae2-4166-45f6-aac7-bfa7ac271b54",
      "resource": {
        "resourceType": "Organization",
        "name": "East Wing Lab-e9593de1",
        "identifier": [
          {
            "system": "http://example.com/org",
            "value": "ORG-002-e9593de1"
          }
        ],
        "type": [
          {
            "coding": [
              {
                "system": "http://terminology.hl7.org/CodeSystem/organization-type",
                "code": "dept"
              }
            ]
          }
        ]
      },
      "request": {
        "method": "POST",
        "url": "Organization"
      }
    },
    {
      "fullUrl": "urn:uuid:aaa99e41-7a15-49b8-aeee-e73fcda27499",
      "resource": {
        "resourceType": "Organization",
        "name": "Pharmacy Services-e9593de1",
        "identifier": [
          {
            "system": "http://example.com/org",
            "value": "ORG-003-e9593de1"
          }
        ]
      },
      "request": {
        "method": "POST",
        "url": "Organization"
      }
    },
    {
      "fullUrl": "urn:uuid:12b9575b-e96d-488b-8368-ab09ebbdd4a7",
      "resource": {
        "resourceType": "Organization",
        "name": "Insurance Corp-e9593de1",
        "identifier": [
          {
            "system": "http://example.com/org",
            "value": "ORG-004-e9593de1"
          }
        ],
        "type": [
          {
            "coding": [
              {
                "system": "http://terminology.hl7.org/CodeSystem/organization-type",
                "code": "ins"
              }
            ]
          }
        ]
      },
      "request": {
        "method": "POST",
        "url": "Organization"
      }
    },
    {
      "fullUrl": "urn:uuid:fc7f9188-f643-4cee-85fb-0d58f19a94d9",
      "resource": {
        "resourceType": "Organization",
        "name": "Specialty Clinic-e9593de1",
        "identifier": [
          {
            "system": "http://example.com/org",
            "value": "ORG-005-e9593de1"
          }
        ],
        "address": [
          {
            "line": [
              "200 Oak Ave"
            ],
            "city": "Shelbyville",
            "state": "IL",
            "postalCode": "62702",
            "country": "US"
          }
        ]
      },
      "request": {
        "method": "POST",
        "url": "Organization"
      }
    },
    {
      "fullUrl": "urn:uuid:771e0828-88c5-493a-85a0-a7b0a9621eef",
      "resource": {
        "resourceType": "Practitioner",
        "name": [
          {
            "family": "Smith-e9593de1",
            "given": [
              "John",
              "A"
            ],
            "prefix": [
              "Dr."
            ]
          }
        ],
        "identifier": [
          {
            "system": "http://example.com/npi",
            "value": "NPI-001-e9593de1"
          }
        ],
        "gender": "male",
        "birthDate": "1975-03-15",
        "telecom": [
          {
            "system": "email",
            "value": "john.smith-e9593de1@hospital.com"
          }
        ],
        "address": [
          {
            "line": [
              "100 Main St"
            ],
            "city": "Springfield",
            "state": "IL",
            "postalCode": "62701",
            "country": "US"
          }
        ]
      },
      "request": {
        "method": "POST",
        "url": "Practitioner"
      }
    },
    {
      "fullUrl": "urn:uuid:56432445-773e-40c7-8e4c-e4a694a212c9",
      "resource": {
        "resourceType": "Practitioner",
        "name": [
          {
            "family": "Johnson-e9593de1",
            "given": [
              "Emily"
            ]
          }
        ],
        "identifier": [
          {
            "system": "http://example.com/npi",
            "value": "NPI-002-e9593de1"
          }
        ],
        "gender": "female"
      },
      "request": {
        "method": "POST",
        "url": "Practitioner"
      }
    },
    {
      "fullUrl": "urn:uuid:4b2ffda5-7b04-42fb-b0de-27e5f902384e",
      "resource": {
        "resourceType": "Practitioner",
        "name": [
          {
            "family": "Williams-e9593de1",
            "given": [
              "Robert"
            ]
          }
        ],
        "identifier": [
          {
            "system": "http://example.com/npi",
            "value": "NPI-003-e9593de1"
          }
        ],
        "gender": "male"
      },
      "request": {
        "method": "POST",
        "url": "Practitioner"
      }
    },
    {
      "fullUrl": "urn:uuid:9babd256-02eb-4653-83dd-6acf08d03e7f",
      "resource": {
        "resourceType": "Practitioner",
        "name": [
          {
            "family": "Brown-e9593de1",
            "given": [
              "Sarah"
            ]
          }
        ],
        "identifier": [
          {
            "system": "http://example.com/npi",
            "value": "NPI-004-e9593de1"
          }
        ],
        "gender": "female"
      },
      "request": {
        "method": "POST",
        "url": "Practitioner"
      }
    },
    {
      "fullUrl": "urn:uuid:5b1dac81-6924-4c01-b165-aaa872d89c0f",
      "resource": {
        "resourceType": "Practitioner",
        "name": [
          {
            "family": "Davis-e9593de1",
            "given": [
              "Michael",
              "J"
            ]
          }
        ],
        "identifier": [
          {
            "system": "http://example.com/npi",
            "value": "NPI-005-e9593de1"
          }
        ],
        "gender": "male",
        "telecom": [
          {
            "system": "phone",
            "value": "555-0200"
          },
          {
            "system": "email",
            "value": "michael.davis-e9593de1@hospital.com"
          }
        ]
      },
      "request": {
        "method": "POST",
        "url": "Practitioner"
      }
    },
    {
      "fullUrl": "urn:uuid:f58a572d-9ce3-4916-9294-51a7e726661a",
      "resource": {
        "resourceType": "PractitionerRole",
        "practitioner": {
          "reference": "urn:uuid:771e0828-88c5-493a-85a0-a7b0a9621eef"
        },
        "organization": {
          "reference": "urn:uuid:c718324a-f138-4993-a425-45e47113669f"
        },
        "code": [
          {
            "coding": [
              {
                "system": "http://snomed.info/sct",
                "code": "59058001",
                "display": "GP-e9593de1"
              }
            ]
          }
        ],
        "active": true
      },
      "request": {
        "method": "POST",
        "url": "PractitionerRole"
      }
    },
    {
      "fullUrl": "urn:uuid:a9a1edb7-0bcd-4c88-b15c-5b5788c9b6d3",
      "resource": {
        "resourceType": "PractitionerRole",
        "practitioner": {
          "reference": "urn:uuid:56432445-773e-40c7-8e4c-e4a694a212c9"
        },
        "organization": {
          "reference": "urn:uuid:29d81ae2-4166-45f6-aac7-bfa7ac271b54"
        },
        "code": [
          {
            "coding": [
              {
                "system": "http://snomed.info/sct",
                "code": "61246008",
                "display": "Lab-e9593de1"
              }
            ]
          }
        ]
      },
      "request": {
        "method": "POST",
        "url": "PractitionerRole"
      }
    },
    {
      "fullUrl": "urn:uuid:1b05b446-bb6e-4228-82ed-2b587e72144d",
      "resource": {
        "resourceType": "PractitionerRole",
        "practitioner": {
          "reference": "urn:uuid:4b2ffda5-7b04-42fb-b0de-27e5f902384e"
        },
        "organization": {
          "reference": "urn:uuid:c718324a-f138-4993-a425-45e47113669f"
        },
        "code": [
          {
            "coding": [
              {
                "system": "http://snomed.info/sct",
                "code": "304292004",
                "display": "Surgeon-e9593de1"
              }
            ]
          }
        ]
      },
      "request": {
        "method": "POST",
        "url": "PractitionerRole"
      }
    },
    {
      "fullUrl": "urn:uuid:37e5361a-3189-4e12-8d23-92835ac4a709",
      "resource": {
        "resourceType": "PractitionerRole",
        "practitioner": {
          "reference": "urn:uuid:9babd256-02eb-4653-83dd-6acf08d03e7f"
        },
        "organization": {
          "reference": "urn:uuid:aaa99e41-7a15-49b8-aeee-e73fcda27499"
        },
        "code": [
          {
            "coding": [
              {
                "system": "http://snomed.info/sct",
                "code": "46255001",
                "display": "Pharmacist-e9593de1"
              }
            ]
          }
        ]
      },
      "request": {
        "method": "POST",
        "url": "PractitionerRole"
      }
    },
    {
      "fullUrl": "urn:uuid:2f18b5d9-c32a-4fff-ba32-4f6144efeac3",
      "resource": {
        "resourceType": "PractitionerRole",
        "practitioner": {
          "reference": "urn:uuid:5b1dac81-6924-4c01-b165-aaa872d89c0f"
        },
        "organization": {
          "reference": "urn:uuid:fc7f9188-f643-4cee-85fb-0d58f19a94d9"
        },
        "code": [
          {
            "coding": [
              {
                "system": "http://snomed.info/sct",
                "code": "309343006",
                "display": "Specialist-e9593de1"
              }
            ]
          }
        ]
      },
      "request": {
        "method": "POST",
        "url": "PractitionerRole"
      }
    },
    {
      "fullUrl": "urn:uuid:d5b144db-d341-4c8d-804a-759fb5eb22e8",
      "resource": {
        "resourceType": "Patient",
        "active": true,
        "gender": "male",
        "birthDate": "1985-06-15",
        "name": [
          {
            "use": "official",
            "family": "Doe-e9593de1",
            "given": [
              "John",
              "Michael"
            ]
          },
          {
            "use": "nickname",
            "given": [
              "Johnny"
            ]
          }
        ],
        "identifier": [
          {
            "system": "http://example.com/mrn",
            "value": "MRN-001-e9593de1"
          },
          {
            "system": "http://example.com/ssn",
            "value": "SSN-001-e9593de1"
          }
        ],
        "telecom": [
          {
            "system": "phone",
            "value": "555-1001",
            "use": "home"
          },
          {
            "system": "email",
            "value": "john.doe-e9593de1@example.com",
            "use": "work"
          }
        ],
        "address": [
          {
            "use": "home",
            "line": [
              "123 Elm St",
              "Apt 4B"
            ],
            "city": "Springfield",
            "state": "IL",
            "postalCode": "62701",
            "country": "US"
          }
        ],
        "managingOrganization": {
          "reference": "urn:uuid:c718324a-f138-4993-a425-45e47113669f"
        },
        "generalPractitioner": [
          {
            "reference": "urn:uuid:771e0828-88c5-493a-85a0-a7b0a9621eef"
          }
        ],
        "meta": {
          "tag": [
            {
              "system": "http://example.com/tags",
              "code": "vip-e9593de1"
            }
          ]
        },
        "maritalStatus": {
          "coding": [
            {
              "system": "http://terminology.hl7.org/CodeSystem/v3-MaritalStatus",
              "code": "M",
              "display": "Married"
            }
          ]
        },
        "communication": [
          {
            "language": {
              "coding": [
                {
                  "system": "urn:ietf:bcp:47",
                  "code": "en"
                }
              ]
            }
          }
        ]
      },
      "request": {
        "method": "POST",
        "url": "Patient"
      }
    },
    {
      "fullUrl": "urn:uuid:569f5fd9-7295-4a2e-bda7-c2cd0439c80c",
      "resource": {
        "resourceType": "Patient",
        "active": true,
        "gender": "female",
        "birthDate": "1990-11-22",
        "name": [
          {
            "use": "official",
            "family": "Smith-e9593de1",
            "given": [
              "Jane",
              "Elizabeth"
            ]
          }
        ],
        "identifier": [
          {
            "system": "http://example.com/mrn",
            "value": "MRN-002-e9593de1"
          }
        ],
        "telecom": [
          {
            "system": "phone",
            "value": "555-1002"
          }
        ],
        "address": [
          {
            "use": "home",
            "line": [
              "456 Oak Ave"
            ],
            "city": "Chicago",
            "state": "IL",
            "postalCode": "60601",
            "country": "US"
          }
        ],
        "managingOrganization": {
          "reference": "urn:uuid:c718324a-f138-4993-a425-45e47113669f"
        }
      },
      "request": {
        "method": "POST",
        "url": "Patient"
      }
    },
    {
      "fullUrl": "urn:uuid:4d240a76-a56d-4e9a-8111-5855b8aeb45f",
      "resource": {
        "resourceType": "Patient",
        "active": true,
        "gender": "male",
        "birthDate": "1978-01-30",
        "name": [
          {
            "use": "official",
            "family": "Williams-e9593de1",
            "given": [
              "Robert"
            ]
          }
        ],
        "identifier": [
          {
            "system": "http://example.com/mrn",
            "value": "MRN-003-e9593de1"
          }
        ],
        "address": [
          {
            "line": [
              "789 Pine Rd"
            ],
            "city": "Shelbyville",
            "state": "IL",
            "postalCode": "62702",
            "country": "US"
          },
          {
            "use": "work",
            "line": [
              "100 Main St"
            ],
            "city": "Springfield",
            "state": "IL"
          }
        ],
        "generalPractitioner": [
          {
            "reference": "urn:uuid:4b2ffda5-7b04-42fb-b0de-27e5f902384e"
          }
        ],
        "meta": {
          "tag": [
            {
              "system": "http://example.com/tags",
              "code": "urgent-e9593de1"
            },
            {
              "system": "http://example.com/tags",
              "code": "flagged-e9593de1"
            }
          ],
          "security": [
            {
              "system": "http://terminology.hl7.org/CodeSystem/v3-Confidentiality",
              "code": "R"
            }
          ]
        }
      },
      "request": {
        "method": "POST",
        "url": "Patient"
      }
    },
    {
      "fullUrl": "urn:uuid:e8777c2a-438d-4ac8-935a-76c44d4c49a4",
      "resource": {
        "resourceType": "Patient",
        "active": false,
        "gender": "female",
        "birthDate": "2005-08-10",
        "name": [
          {
            "use": "official",
            "family": "Davis-e9593de1",
            "given": [
              "Alice"
            ]
          }
        ],
        "identifier": [
          {
            "system": "http://example.com/mrn",
            "value": "MRN-004-e9593de1"
          }
        ],
        "deceasedBoolean": false
      },
      "request": {
        "method": "POST",
        "url": "Patient"
      }
    },
    {
      "fullUrl": "urn:uuid:1aa58c2f-adbd-4068-9b5e-cd020066a18b",
      "resource": {
        "resourceType": "Patient",
        "active": true,
        "gender": "other",
        "birthDate": "2000-03-01",
        "name": [
          {
            "use": "official",
            "family": "Garcia-e9593de1",
            "given": [
              "Alex",
              "M"
            ]
          }
        ],
        "identifier": [
          {
            "system": "http://example.com/mrn",
            "value": "MRN-005-e9593de1"
          }
        ],
        "telecom": [
          {
            "system": "email",
            "value": "alex.garcia-e9593de1@example.com"
          }
        ]
      },
      "request": {
        "method": "POST",
        "url": "Patient"
      }
    },
    {
      "fullUrl": "urn:uuid:1f779128-1029-4af5-b6a6-bcf921b5748b",
      "resource": {
        "resourceType": "Patient",
        "active": true,
        "gender": "male",
        "birthDate": "1960-12-25",
        "name": [
          {
            "use": "official",
            "family": "Wilson-e9593de1",
            "given": [
              "George"
            ]
          }
        ],
        "identifier": [
          {
            "system": "http://example.com/mrn",
            "value": "MRN-006-e9593de1"
          }
        ],
        "deceasedDateTime": "2025-01-15T10:30:00Z"
      },
      "request": {
        "method": "POST",
        "url": "Patient"
      }
    },
    {
      "fullUrl": "urn:uuid:efd0a560-277c-4b71-add3-6a3e044e9d0c",
      "resource": {
        "resourceType": "Patient",
        "active": true,
        "gender": "female",
        "birthDate": "1995-07-04",
        "name": [
          {
            "use": "official",
            "family": "Martinez-e9593de1",
            "given": [
              "Sofia",
              "Isabella"
            ]
          },
          {
            "use": "maiden",
            "family": "Lopez-e9593de1"
          }
        ],
        "identifier": [
          {
            "system": "http://example.com/mrn",
            "value": "MRN-007-e9593de1"
          },
          {
            "system": "http://example.com/passport",
            "value": "PP-007-e9593de1"
          }
        ],
        "telecom": [
          {
            "system": "phone",
            "value": "555-1007",
            "use": "mobile"
          },
          {
            "system": "phone",
            "value": "555-1008",
            "use": "home"
          },
          {
            "system": "email",
            "value": "sofia-e9593de1@example.com"
          }
        ],
        "address": [
          {
            "use": "home",
            "line": [
              "1000 Maple Dr"
            ],
            "city": "Capital City",
            "state": "CA",
            "postalCode": "90001",
            "country": "US"
          },
          {
            "use": "temp",
            "city": "TempCity",
            "state": "NY"
          }
        ],
        "contact": [
          {
            "relationship": [
              {
                "coding": [
                  {
                    "system": "http://terminology.hl7.org/CodeSystem/v2-0131",
                    "code": "N"
                  }
                ]
              }
            ],
            "name": {
              "family": "EmergencyContact-e9593de1",
              "given": [
                "Carlos"
              ]
            },
            "telecom": [
              {
                "system": "phone",
                "value": "555-9999"
              }
            ]
          }
        ]
      },
      "request": {
        "method": "POST",
        "url": "Patient"
      }
    },
    {
      "fullUrl": "urn:uuid:5ec05ca7-38be-4f03-a648-55d7cf9d4d27",
      "resource": {
        "resourceType": "Encounter",
        "status": "finished",
        "class": {
          "system": "http://terminology.hl7.org/CodeSystem/v3-ActCode",
          "code": "AMB",
          "display": "Ambulatory-e9593de1"
        },
        "subject": {
          "reference": "urn:uuid:d5b144db-d341-4c8d-804a-759fb5eb22e8"
        },
        "serviceProvider": {
          "reference": "urn:uuid:c718324a-f138-4993-a425-45e47113669f"
        },
        "participant": [
          {
            "individual": {
              "reference": "urn:uuid:771e0828-88c5-493a-85a0-a7b0a9621eef"
            }
          }
        ],
        "period": {
          "start": "2025-01-10T08:00:00Z",
          "end": "2025-01-10T09:00:00Z"
        },
        "type": [
          {
            "coding": [
              {
                "system": "http://snomed.info/sct",
                "code": "308335008",
                "display": "OPD-e9593de1"
              }
            ]
          }
        ]
      },
      "request": {
        "method": "POST",
        "url": "Encounter"
      }
    },
    {
      "fullUrl": "urn:uuid:ac6010f9-8a4d-441d-9d30-33372524d004",
      "resource": {
        "resourceType": "Encounter",
        "status": "finished",
        "class": {
          "system": "http://terminology.hl7.org/CodeSystem/v3-ActCode",
          "code": "IMP"
        },
        "subject": {
          "reference": "urn:uuid:d5b144db-d341-4c8d-804a-759fb5eb22e8"
        },
        "serviceProvider": {
          "reference": "urn:uuid:c718324a-f138-4993-a425-45e47113669f"
        },
        "period": {
          "start": "2025-02-01T10:00:00Z",
          "end": "2025-02-05T14:00:00Z"
        }
      },
      "request": {
        "method": "POST",
        "url": "Encounter"
      }
    },
    {
      "fullUrl": "urn:uuid:0961d632-1a6b-4ef2-a930-69096c6529c7",
      "resource": {
        "resourceType": "Encounter",
        "status": "finished",
        "class": {
          "system": "http://terminology.hl7.org/CodeSystem/v3-ActCode",
          "code": "AMB"
        },
        "subject": {
          "reference": "urn:uuid:569f5fd9-7295-4a2e-bda7-c2cd0439c80c"
        },
        "serviceProvider": {
          "reference": "urn:uuid:c718324a-f138-4993-a425-45e47113669f"
        },
        "participant": [
          {
            "individual": {
              "reference": "urn:uuid:56432445-773e-40c7-8e4c-e4a694a212c9"
            }
          }
        ],
        "period": {
          "start": "2025-03-15T14:00:00Z"
        }
      },
      "request": {
        "method": "POST",
        "url": "Encounter"
      }
    },
    {
      "fullUrl": "urn:uuid:2ffbea68-cd6f-4a4e-8150-053c3aeea08e",
      "resource": {
        "resourceType": "Encounter",
        "status": "in-progress",
        "class": {
          "system": "http://terminology.hl7.org/CodeSystem/v3-ActCode",
          "code": "EMER"
        },
        "subject": {
          "reference": "urn:uuid:4d240a76-a56d-4e9a-8111-5855b8aeb45f"
        },
        "serviceProvider": {
          "reference": "urn:uuid:c718324a-f138-4993-a425-45e47113669f"
        },
        "period": {
          "start": "2026-02-25T10:00:00Z"
        }
      },
      "request": {
        "method": "POST",
        "url": "Encounter"
      }
    },
    {
      "fullUrl": "urn:uuid:a92a61d7-8f1e-45b0-9351-8d145b7cff4b",
      "resource": {
        "resourceType": "Encounter",
        "status": "planned",
        "class": {
          "system": "http://terminology.hl7.org/CodeSystem/v3-ActCode",
          "code": "AMB"
        },
        "subject": {
          "reference": "urn:uuid:e8777c2a-438d-4ac8-935a-76c44d4c49a4"
        },
        "period": {
          "start": "2026-03-01T09:00:00Z"
        }
      },
      "request": {
        "method": "POST",
        "url": "Encounter"
      }
    },
    {
      "fullUrl": "urn:uuid:1ce62d1d-f6f9-460b-937b-4734bd5e7cc6",
      "resource": {
        "resourceType": "Encounter",
        "status": "finished",
        "class": {
          "system": "http://terminology.hl7.org/CodeSystem/v3-ActCode",
          "code": "AMB"
        },
        "subject": {
          "reference": "urn:uuid:efd0a560-277c-4b71-add3-6a3e044e9d0c"
        },
        "serviceProvider": {
          "reference": "urn:uuid:fc7f9188-f643-4cee-85fb-0d58f19a94d9"
        },
        "participant": [
          {
            "individual": {
              "reference": "urn:uuid:5b1dac81-6924-4c01-b165-aaa872d89c0f"
            }
          }
        ],
        "period": {
          "start": "2025-06-01T11:00:00Z",
          "end": "2025-06-01T12:00:00Z"
        }
      },
      "request": {
        "method": "POST",
        "url": "Encounter"
      }
    },
    {
      "fullUrl": "urn:uuid:fd4a25ce-f45d-47ed-b709-f0f4b9f2fcd8",
      "resource": {
        "resourceType": "Condition",
        "clinicalStatus": {
          "coding": [
            {
              "system": "http://terminology.hl7.org/CodeSystem/condition-clinical",
              "code": "active"
            }
          ]
        },
        "verificationStatus": {
          "coding": [
            {
              "system": "http://terminology.hl7.org/CodeSystem/condition-ver-status",
              "code": "confirmed"
            }
          ]
        },
        "code": {
          "coding": [
            {
              "system": "http://snomed.info/sct",
              "code": "44054006",
              "display": "Type2DM-e9593de1"
            }
          ]
        },
        "subject": {
          "reference": "urn:uuid:d5b144db-d341-4c8d-804a-759fb5eb22e8"
        },
        "encounter": {
          "reference": "urn:uuid:5ec05ca7-38be-4f03-a648-55d7cf9d4d27"
        },
        "onsetDateTime": "2020-01-01"
      },
      "request": {
        "method": "POST",
        "url": "Condition"
      }
    },
    {
      "fullUrl": "urn:uuid:d51393a9-a3f7-4577-b3f3-86d51ae57350",
      "resource": {
        "resourceType": "Condition",
        "clinicalStatus": {
          "coding": [
            {
              "system": "http://terminology.hl7.org/CodeSystem/condition-clinical",
              "code": "active"
            }
          ]
        },
        "verificationStatus": {
          "coding": [
            {
              "system": "http://terminology.hl7.org/CodeSystem/condition-ver-status",
              "code": "confirmed"
            }
          ]
        },
        "code": {
          "coding": [
            {
              "system": "http://snomed.info/sct",
              "code": "38341003",
              "display": "Hypertension-e9593de1"
            }
          ]
        },
        "subject": {
          "reference": "urn:uuid:d5b144db-d341-4c8d-804a-759fb5eb22e8"
        },
        "onsetDateTime": "2018-06-15"
      },
      "request": {
        "method": "POST",
        "url": "Condition"
      }
    },
    {
      "fullUrl": "urn:uuid:cdfa4f0e-de1c-4b24-aadf-296d942e8c28",
      "resource": {
        "resourceType": "Condition",
        "clinicalStatus": {
          "coding": [
            {
              "system": "http://terminology.hl7.org/CodeSystem/condition-clinical",
              "code": "resolved"
            }
          ]
        },
        "code": {
          "coding": [
            {
              "system": "http://snomed.info/sct",
              "code": "195662009",
              "display": "Pneumonia-e9593de1"
            }
          ]
        },
        "subject": {
          "reference": "urn:uuid:569f5fd9-7295-4a2e-bda7-c2cd0439c80c"
        },
        "encounter": {
          "reference": "urn:uuid:0961d632-1a6b-4ef2-a930-69096c6529c7"
        },
        "onsetDateTime": "2025-03-10",
        "abatementDateTime": "2025-03-25"
      },
      "request": {
        "method": "POST",
        "url": "Condition"
      }
    },
    {
      "fullUrl": "urn:uuid:fd22b5ed-815d-4135-a6ed-72cff4e4afdf",
      "resource": {
        "resourceType": "Condition",
        "clinicalStatus": {
          "coding": [
            {
              "system": "http://terminology.hl7.org/CodeSystem/condition-clinical",
              "code": "active"
            }
          ]
        },
        "code": {
          "coding": [
            {
              "system": "http://snomed.info/sct",
              "code": "73211009",
              "display": "DiabetesI-e9593de1"
            }
          ]
        },
        "subject": {
          "reference": "urn:uuid:4d240a76-a56d-4e9a-8111-5855b8aeb45f"
        },
        "onsetDateTime": "2010-05-01"
      },
      "request": {
        "method": "POST",
        "url": "Condition"
      }
    },
    {
      "fullUrl": "urn:uuid:c9a4b5fd-606e-4e1f-8bd2-33b6499c25e0",
      "resource": {
        "resourceType": "Condition",
        "clinicalStatus": {
          "coding": [
            {
              "system": "http://terminology.hl7.org/CodeSystem/condition-clinical",
              "code": "active"
            }
          ]
        },
        "code": {
          "coding": [
            {
              "system": "http://snomed.info/sct",
              "code": "195967001",
              "display": "Asthma-e9593de1"
            }
          ]
        },
        "subject": {
          "reference": "urn:uuid:efd0a560-277c-4b71-add3-6a3e044e9d0c"
        },
        "encounter": {
          "reference": "urn:uuid:1ce62d1d-f6f9-460b-937b-4734bd5e7cc6"
        },
        "onsetDateTime": "2015-08-20"
      },
      "request": {
        "method": "POST",
        "url": "Condition"
      }
    },
    {
      "fullUrl": "urn:uuid:301c1618-a29f-48ea-90e4-98f2fec61caa",
      "resource": {
        "resourceType": "Observation",
        "status": "final",
        "code": {
          "coding": [
            {
              "system": "http://loinc.org",
              "code": "29463-7",
              "display": "BodyWeight-e9593de1"
            }
          ]
        },
        "subject": {
          "reference": "urn:uuid:d5b144db-d341-4c8d-804a-759fb5eb22e8"
        },
        "encounter": {
          "reference": "urn:uuid:5ec05ca7-38be-4f03-a648-55d7cf9d4d27"
        },
        "valueQuantity": {
          "value": 75.5,
          "unit": "kg",
          "system": "http://unitsofmeasure.org",
          "code": "kg"
        },
        "effectiveDateTime": "2025-01-10T08:30:00Z",
        "category": [
          {
            "coding": [
              {
                "system": "http://terminology.hl7.org/CodeSystem/observation-category",
                "code": "vital-signs"
              }
            ]
          }
        ]
      },
      "request": {
        "method": "POST",
        "url": "Observation"
      }
    },
    {
      "fullUrl": "urn:uuid:7a72bac8-22e8-4e54-9300-05b7afd24607",
      "resource": {
        "resourceType": "Observation",
        "status": "final",
        "code": {
          "coding": [
            {
              "system": "http://loinc.org",
              "code": "8867-4",
              "display": "HeartRate-e9593de1"
            }
          ]
        },
        "subject": {
          "reference": "urn:uuid:d5b144db-d341-4c8d-804a-759fb5eb22e8"
        },
        "encounter": {
          "reference": "urn:uuid:5ec05ca7-38be-4f03-a648-55d7cf9d4d27"
        },
        "valueQuantity": {
          "value": 72,
          "unit": "/min",
          "system": "http://unitsofmeasure.org",
          "code": "/min"
        },
        "effectiveDateTime": "2025-01-10T08:30:00Z"
      },
      "request": {
        "method": "POST",
        "url": "Observation"
      }
    },
    {
      "fullUrl": "urn:uuid:b8f0b0ce-a530-49fc-aab7-fec61a1775f7",
      "resource": {
        "resourceType": "Observation",
        "status": "final",
        "code": {
          "coding": [
            {
              "system": "http://loinc.org",
              "code": "85354-9",
              "display": "BP-e9593de1"
            }
          ]
        },
        "subject": {
          "reference": "urn:uuid:d5b144db-d341-4c8d-804a-759fb5eb22e8"
        },
        "encounter": {
          "reference": "urn:uuid:ac6010f9-8a4d-441d-9d30-33372524d004"
        },
        "component": [
          {
            "code": {
              "coding": [
                {
                  "system": "http://loinc.org",
                  "code": "8480-6"
                }
              ]
            },
            "valueQuantity": {
              "value": 120,
              "unit": "mmHg"
            }
          },
          {
            "code": {
              "coding": [
                {
                  "system": "http://loinc.org",
                  "code": "8462-4"
                }
              ]
            },
            "valueQuantity": {
              "value": 80,
              "unit": "mmHg"
            }
          }
        ],
        "effectiveDateTime": "2025-02-01T10:30:00Z"
      },
      "request": {
        "method": "POST",
        "url": "Observation"
      }
    },
    {
      "fullUrl": "urn:uuid:7614839d-a72e-45e5-a173-d403282dc401",
      "resource": {
        "resourceType": "Observation",
        "status": "final",
        "code": {
          "coding": [
            {
              "system": "http://loinc.org",
              "code": "2339-0",
              "display": "Glucose-e9593de1"
            }
          ]
        },
        "subject": {
          "reference": "urn:uuid:569f5fd9-7295-4a2e-bda7-c2cd0439c80c"
        },
        "encounter": {
          "reference": "urn:uuid:0961d632-1a6b-4ef2-a930-69096c6529c7"
        },
        "valueQuantity": {
          "value": 95,
          "unit": "mg/dL"
        },
        "effectiveDateTime": "2025-03-15T14:30:00Z",
        "interpretation": [
          {
            "coding": [
              {
                "system": "http://terminology.hl7.org/CodeSystem/v3-ObservationInterpretation",
                "code": "N",
                "display": "Normal"
              }
            ]
          }
        ]
      },
      "request": {
        "method": "POST",
        "url": "Observation"
      }
    },
    {
      "fullUrl": "urn:uuid:a9cd9fbe-a9ef-4bad-bc54-521cbccbfaf2",
      "resource": {
        "resourceType": "Observation",
        "status": "final",
        "code": {
          "coding": [
            {
              "system": "http://loinc.org",
              "code": "718-7",
              "display": "Hemoglobin-e9593de1"
            }
          ]
        },
        "subject": {
          "reference": "urn:uuid:4d240a76-a56d-4e9a-8111-5855b8aeb45f"
        },
        "valueQuantity": {
          "value": 14.2,
          "unit": "g/dL"
        },
        "effectiveDateTime": "2025-04-01"
      },
      "request": {
        "method": "POST",
        "url": "Observation"
      }
    },
    {
      "fullUrl": "urn:uuid:1a1d8cb8-5c40-46a8-8a4a-5f2168118732",
      "resource": {
        "resourceType": "Observation",
        "status": "preliminary",
        "code": {
          "coding": [
            {
              "system": "http://loinc.org",
              "code": "6690-2",
              "display": "WBC-e9593de1"
            }
          ]
        },
        "subject": {
          "reference": "urn:uuid:4d240a76-a56d-4e9a-8111-5855b8aeb45f"
        },
        "encounter": {
          "reference": "urn:uuid:2ffbea68-cd6f-4a4e-8150-053c3aeea08e"
        },
        "valueQuantity": {
          "value": 8500,
          "unit": "/uL"
        },
        "effectiveDateTime": "2026-02-25T10:30:00Z"
      },
      "request": {
        "method": "POST",
        "url": "Observation"
      }
    },
    {
      "fullUrl": "urn:uuid:4794fa6c-bce8-4acf-8618-87eef0b0bf16",
      "resource": {
        "resourceType": "Observation",
        "status": "final",
        "code": {
          "coding": [
            {
              "system": "http://loinc.org",
              "code": "39156-5",
              "display": "BMI-e9593de1"
            }
          ]
        },
        "subject": {
          "reference": "urn:uuid:efd0a560-277c-4b71-add3-6a3e044e9d0c"
        },
        "encounter": {
          "reference": "urn:uuid:1ce62d1d-f6f9-460b-937b-4734bd5e7cc6"
        },
        "valueQuantity": {
          "value": 22.1,
          "unit": "kg/m2"
        },
        "effectiveDateTime": "2025-06-01T11:30:00Z"
      },
      "request": {
        "method": "POST",
        "url": "Observation"
      }
    },
    {
      "fullUrl": "urn:uuid:7fabb163-ef3b-4b3f-9d40-8948e71fbf73",
      "resource": {
        "resourceType": "Observation",
        "status": "final",
        "code": {
          "coding": [
            {
              "system": "http://loinc.org",
              "code": "8310-5",
              "display": "BodyTemp-e9593de1"
            }
          ]
        },
        "subject": {
          "reference": "urn:uuid:efd0a560-277c-4b71-add3-6a3e044e9d0c"
        },
        "valueQuantity": {
          "value": 37.2,
          "unit": "Cel"
        },
        "effectiveDateTime": "2025-06-01T11:35:00Z"
      },
      "request": {
        "method": "POST",
        "url": "Observation"
      }
    },
    {
      "fullUrl": "urn:uuid:c111f628-d8fc-43f5-9799-82bd2773558c",
      "resource": {
        "resourceType": "DiagnosticReport",
        "status": "final",
        "code": {
          "coding": [
            {
              "system": "http://loinc.org",
              "code": "58410-2",
              "display": "CBC-e9593de1"
            }
          ]
        },
        "subject": {
          "reference": "urn:uuid:d5b144db-d341-4c8d-804a-759fb5eb22e8"
        },
        "encounter": {
          "reference": "urn:uuid:5ec05ca7-38be-4f03-a648-55d7cf9d4d27"
        },
        "result": [
          {
            "reference": "urn:uuid:301c1618-a29f-48ea-90e4-98f2fec61caa"
          },
          {
            "reference": "urn:uuid:7a72bac8-22e8-4e54-9300-05b7afd24607"
          }
        ],
        "effectiveDateTime": "2025-01-10T09:00:00Z",
        "issued": "2025-01-10T10:00:00Z"
      },
      "request": {
        "method": "POST",
        "url": "DiagnosticReport"
      }
    },
    {
      "fullUrl": "urn:uuid:ae6c9e41-9866-4cd7-a238-04cb883303c7",
      "resource": {
        "resourceType": "DiagnosticReport",
        "status": "final",
        "code": {
          "coding": [
            {
              "system": "http://loinc.org",
              "code": "24323-8",
              "display": "CMP-e9593de1"
            }
          ]
        },
        "subject": {
          "reference": "urn:uuid:d5b144db-d341-4c8d-804a-759fb5eb22e8"
        },
        "encounter": {
          "reference": "urn:uuid:ac6010f9-8a4d-441d-9d30-33372524d004"
        },
        "result": [
          {
            "reference": "urn:uuid:b8f0b0ce-a530-49fc-aab7-fec61a1775f7"
          }
        ],
        "effectiveDateTime": "2025-02-01T11:00:00Z"
      },
      "request": {
        "method": "POST",
        "url": "DiagnosticReport"
      }
    },
    {
      "fullUrl": "urn:uuid:8ec578ae-1864-431b-a85a-60a7cd7dd018",
      "resource": {
        "resourceType": "DiagnosticReport",
        "status": "final",
        "code": {
          "coding": [
            {
              "system": "http://loinc.org",
              "code": "2339-0",
              "display": "GlucoseReport-e9593de1"
            }
          ]
        },
        "subject": {
          "reference": "urn:uuid:569f5fd9-7295-4a2e-bda7-c2cd0439c80c"
        },
        "result": [
          {
            "reference": "urn:uuid:7614839d-a72e-45e5-a173-d403282dc401"
          }
        ],
        "effectiveDateTime": "2025-03-15T15:00:00Z"
      },
      "request": {
        "method": "POST",
        "url": "DiagnosticReport"
      }
    },
    {
      "fullUrl": "urn:uuid:085358a5-5b6e-4f47-a28a-cc499de19c93",
      "resource": {
        "resourceType": "DiagnosticReport",
        "status": "preliminary",
        "code": {
          "coding": [
            {
              "system": "http://loinc.org",
              "code": "58410-2",
              "display": "CBC2-e9593de1"
            }
          ]
        },
        "subject": {
          "reference": "urn:uuid:4d240a76-a56d-4e9a-8111-5855b8aeb45f"
        },
        "result": [
          {
            "reference": "urn:uuid:a9cd9fbe-a9ef-4bad-bc54-521cbccbfaf2"
          },
          {
            "reference": "urn:uuid:1a1d8cb8-5c40-46a8-8a4a-5f2168118732"
          }
        ],
        "effectiveDateTime": "2026-02-25T11:00:00Z"
      },
      "request": {
        "method": "POST",
        "url": "DiagnosticReport"
      }
    },
    {
      "fullUrl": "urn:uuid:95080474-dc0f-479e-9d95-2984082bcfe2",
      "resource": {
        "resourceType": "DiagnosticReport",
        "status": "final",
        "code": {
          "coding": [
            {
              "system": "http://loinc.org",
              "code": "55399-0",
              "display": "Vitals-e9593de1"
            }
          ]
        },
        "subject": {
          "reference": "urn:uuid:efd0a560-277c-4b71-add3-6a3e044e9d0c"
        },
        "encounter": {
          "reference": "urn:uuid:1ce62d1d-f6f9-460b-937b-4734bd5e7cc6"
        },
        "result": [
          {
            "reference": "urn:uuid:4794fa6c-bce8-4acf-8618-87eef0b0bf16"
          },
          {
            "reference": "urn:uuid:7fabb163-ef3b-4b3f-9d40-8948e71fbf73"
          }
        ],
        "effectiveDateTime": "2025-06-01T12:00:00Z"
      },
      "request": {
        "method": "POST",
        "url": "DiagnosticReport"
      }
    },
    {
      "fullUrl": "urn:uuid:0572252c-ec69-4101-8d3c-066a1d70471c",
      "resource": {
        "resourceType": "MedicationRequest",
        "status": "active",
        "intent": "order",
        "medicationReference": {
          "reference": "urn:uuid:b3e81616-7bfb-4f66-a8db-3ab2fc755444"
        },
        "subject": {
          "reference": "urn:uuid:d5b144db-d341-4c8d-804a-759fb5eb22e8"
        },
        "encounter": {
          "reference": "urn:uuid:5ec05ca7-38be-4f03-a648-55d7cf9d4d27"
        },
        "requester": {
          "reference": "urn:uuid:771e0828-88c5-493a-85a0-a7b0a9621eef"
        },
        "authoredOn": "2025-01-10",
        "dosageInstruction": [
          {
            "text": "Take 500mg PRN-e9593de1",
            "timing": {
              "repeat": {
                "frequency": 3,
                "period": 1,
                "periodUnit": "d"
              }
            }
          }
        ]
      },
      "request": {
        "method": "POST",
        "url": "MedicationRequest"
      }
    },
    {
      "fullUrl": "urn:uuid:f7a55d92-c719-4f7a-8e0d-9952b97e6f6d",
      "resource": {
        "resourceType": "MedicationRequest",
        "status": "active",
        "intent": "order",
        "medicationReference": {
          "reference": "urn:uuid:035ed6b0-f24f-4540-83c8-88fade8cfd6e"
        },
        "subject": {
          "reference": "urn:uuid:d5b144db-d341-4c8d-804a-759fb5eb22e8"
        },
        "requester": {
          "reference": "urn:uuid:771e0828-88c5-493a-85a0-a7b0a9621eef"
        },
        "authoredOn": "2025-02-01",
        "dosageInstruction": [
          {
            "text": "250mg TID-e9593de1"
          }
        ]
      },
      "request": {
        "method": "POST",
        "url": "MedicationRequest"
      }
    },
    {
      "fullUrl": "urn:uuid:b5c76325-cf84-43a6-88a9-dac138d551c0",
      "resource": {
        "resourceType": "MedicationRequest",
        "status": "active",
        "intent": "order",
        "medicationReference": {
          "reference": "urn:uuid:8baa741d-b0f8-4073-a885-d54a98190125"
        },
        "subject": {
          "reference": "urn:uuid:569f5fd9-7295-4a2e-bda7-c2cd0439c80c"
        },
        "requester": {
          "reference": "urn:uuid:56432445-773e-40c7-8e4c-e4a694a212c9"
        },
        "authoredOn": "2025-03-15"
      },
      "request": {
        "method": "POST",
        "url": "MedicationRequest"
      }
    },
    {
      "fullUrl": "urn:uuid:08488e0b-5429-429b-8362-2a3d11ca1fb8",
      "resource": {
        "resourceType": "MedicationRequest",
        "status": "stopped",
        "intent": "order",
        "medicationReference": {
          "reference": "urn:uuid:674726e4-0d28-4a76-a585-22321f325065"
        },
        "subject": {
          "reference": "urn:uuid:4d240a76-a56d-4e9a-8111-5855b8aeb45f"
        },
        "requester": {
          "reference": "urn:uuid:4b2ffda5-7b04-42fb-b0de-27e5f902384e"
        },
        "authoredOn": "2025-04-01"
      },
      "request": {
        "method": "POST",
        "url": "MedicationRequest"
      }
    },
    {
      "fullUrl": "urn:uuid:f9efeca4-9994-44bc-95f3-c0ed00e03ea5",
      "resource": {
        "resourceType": "MedicationRequest",
        "status": "active",
        "intent": "plan",
        "medicationReference": {
          "reference": "urn:uuid:2908def6-c545-4a0b-a702-682ab15017fd"
        },
        "subject": {
          "reference": "urn:uuid:efd0a560-277c-4b71-add3-6a3e044e9d0c"
        },
        "encounter": {
          "reference": "urn:uuid:1ce62d1d-f6f9-460b-937b-4734bd5e7cc6"
        },
        "requester": {
          "reference": "urn:uuid:5b1dac81-6924-4c01-b165-aaa872d89c0f"
        },
        "authoredOn": "2025-06-01"
      },
      "request": {
        "method": "POST",
        "url": "MedicationRequest"
      }
    },
    {
      "fullUrl": "urn:uuid:b3e81616-7bfb-4f66-a8db-3ab2fc755444",
      "resource": {
        "resourceType": "Medication",
        "code": {
          "coding": [
            {
              "system": "http://www.nlm.nih.gov/research/umls/rxnorm",
              "code": "1049502",
              "display": "Acetaminophen-e9593de1"
            }
          ]
        },
        "status": "active"
      },
      "request": {
        "method": "POST",
        "url": "Medication"
      }
    },
    {
      "fullUrl": "urn:uuid:035ed6b0-f24f-4540-83c8-88fade8cfd6e",
      "resource": {
        "resourceType": "Medication",
        "code": {
          "coding": [
            {
              "system": "http://www.nlm.nih.gov/research/umls/rxnorm",
              "code": "197361",
              "display": "Amoxicillin-e9593de1"
            }
          ]
        },
        "status": "active",
        "manufacturer": {
          "reference": "urn:uuid:aaa99e41-7a15-49b8-aeee-e73fcda27499"
        }
      },
      "request": {
        "method": "POST",
        "url": "Medication"
      }
    },
    {
      "fullUrl": "urn:uuid:8baa741d-b0f8-4073-a885-d54a98190125",
      "resource": {
        "resourceType": "Medication",
        "code": {
          "coding": [
            {
              "system": "http://www.nlm.nih.gov/research/umls/rxnorm",
              "code": "310965",
              "display": "Lisinopril-e9593de1"
            }
          ]
        },
        "status": "active"
      },
      "request": {
        "method": "POST",
        "url": "Medication"
      }
    },
    {
      "fullUrl": "urn:uuid:674726e4-0d28-4a76-a585-22321f325065",
      "resource": {
        "resourceType": "Medication",
        "code": {
          "coding": [
            {
              "system": "http://www.nlm.nih.gov/research/umls/rxnorm",
              "code": "860975",
              "display": "Metformin-e9593de1"
            }
          ]
        },
        "status": "active"
      },
      "request": {
        "method": "POST",
        "url": "Medication"
      }
    },
    {
      "fullUrl": "urn:uuid:2908def6-c545-4a0b-a702-682ab15017fd",
      "resource": {
        "resourceType": "Medication",
        "code": {
          "coding": [
            {
              "system": "http://www.nlm.nih.gov/research/umls/rxnorm",
              "code": "198440",
              "display": "Omeprazole-e9593de1"
            }
          ]
        },
        "status": "inactive"
      },
      "request": {
        "method": "POST",
        "url": "Medication"
      }
    },
    {
      "fullUrl": "urn:uuid:00afe0b1-e93a-49de-a5b3-ee58a0f12d1d",
      "resource": {
        "resourceType": "AllergyIntolerance",
        "clinicalStatus": {
          "coding": [
            {
              "system": "http://terminology.hl7.org/CodeSystem/allergyintolerance-clinical",
              "code": "active"
            }
          ]
        },
        "verificationStatus": {
          "coding": [
            {
              "system": "http://terminology.hl7.org/CodeSystem/allergyintolerance-verification",
              "code": "confirmed"
            }
          ]
        },
        "type": "allergy",
        "category": [
          "medication"
        ],
        "code": {
          "coding": [
            {
              "system": "http://snomed.info/sct",
              "code": "387458008",
              "display": "Aspirin-e9593de1"
            }
          ]
        },
        "patient": {
          "reference": "urn:uuid:d5b144db-d341-4c8d-804a-759fb5eb22e8"
        },
        "onsetDateTime": "2015-01-01",
        "reaction": [
          {
            "manifestation": [
              {
                "coding": [
                  {
                    "system": "http://snomed.info/sct",
                    "code": "271807003",
                    "display": "Rash"
                  }
                ]
              }
            ],
            "severity": "moderate"
          }
        ]
      },
      "request": {
        "method": "POST",
        "url": "AllergyIntolerance"
      }
    },
    {
      "fullUrl": "urn:uuid:aa9c5232-df23-41f1-9d26-a04ca6bb2bed",
      "resource": {
        "resourceType": "AllergyIntolerance",
        "clinicalStatus": {
          "coding": [
            {
              "system": "http://terminology.hl7.org/CodeSystem/allergyintolerance-clinical",
              "code": "active"
            }
          ]
        },
        "type": "allergy",
        "category": [
          "food"
        ],
        "code": {
          "coding": [
            {
              "system": "http://snomed.info/sct",
              "code": "91935009",
              "display": "Peanut-e9593de1"
            }
          ]
        },
        "patient": {
          "reference": "urn:uuid:d5b144db-d341-4c8d-804a-759fb5eb22e8"
        }
      },
      "request": {
        "method": "POST",
        "url": "AllergyIntolerance"
      }
    },
    {
      "fullUrl": "urn:uuid:c2eed8fd-bdfb-4df1-a752-9ebc4e64836b",
      "resource": {
        "resourceType": "AllergyIntolerance",
        "clinicalStatus": {
          "coding": [
            {
              "system": "http://terminology.hl7.org/CodeSystem/allergyintolerance-clinical",
              "code": "active"
            }
          ]
        },
        "type": "intolerance",
        "category": [
          "medication"
        ],
        "code": {
          "coding": [
            {
              "system": "http://snomed.info/sct",
              "code": "372687004",
              "display": "Penicillin-e9593de1"
            }
          ]
        },
        "patient": {
          "reference": "urn:uuid:569f5fd9-7295-4a2e-bda7-c2cd0439c80c"
        }
      },
      "request": {
        "method": "POST",
        "url": "AllergyIntolerance"
      }
    },
    {
      "fullUrl": "urn:uuid:74bc0d5d-14f4-4f80-8d04-87f8b27254ab",
      "resource": {
        "resourceType": "AllergyIntolerance",
        "clinicalStatus": {
          "coding": [
            {
              "system": "http://terminology.hl7.org/CodeSystem/allergyintolerance-clinical",
              "code": "resolved"
            }
          ]
        },
        "code": {
          "coding": [
            {
              "system": "http://snomed.info/sct",
              "code": "264295007",
              "display": "Latex-e9593de1"
            }
          ]
        },
        "patient": {
          "reference": "urn:uuid:4d240a76-a56d-4e9a-8111-5855b8aeb45f"
        }
      },
      "request": {
        "method": "POST",
        "url": "AllergyIntolerance"
      }
    },
    {
      "fullUrl": "urn:uuid:c43bf4b2-d667-49ff-baf8-d03cc5eb38fa",
      "resource": {
        "resourceType": "AllergyIntolerance",
        "clinicalStatus": {
          "coding": [
            {
              "system": "http://terminology.hl7.org/CodeSystem/allergyintolerance-clinical",
              "code": "active"
            }
          ]
        },
        "type": "allergy",
        "category": [
          "environment"
        ],
        "code": {
          "coding": [
            {
              "system": "http://snomed.info/sct",
              "code": "256259004",
              "display": "Pollen-e9593de1"
            }
          ]
        },
        "patient": {
          "reference": "urn:uuid:efd0a560-277c-4b71-add3-6a3e044e9d0c"
        }
      },
      "request": {
        "method": "POST",
        "url": "AllergyIntolerance"
      }
    },
    {
      "fullUrl": "urn:uuid:504ba82c-f975-4b4d-91a9-cc68dd4acb44",
      "resource": {
        "resourceType": "Procedure",
        "status": "completed",
        "code": {
          "coding": [
            {
              "system": "http://snomed.info/sct",
              "code": "80146002",
              "display": "Appendectomy-e9593de1"
            }
          ]
        },
        "subject": {
          "reference": "urn:uuid:d5b144db-d341-4c8d-804a-759fb5eb22e8"
        },
        "encounter": {
          "reference": "urn:uuid:ac6010f9-8a4d-441d-9d30-33372524d004"
        },
        "performedDateTime": "2025-02-03T14:00:00Z",
        "performer": [
          {
            "actor": {
              "reference": "urn:uuid:4b2ffda5-7b04-42fb-b0de-27e5f902384e"
            }
          }
        ]
      },
      "request": {
        "method": "POST",
        "url": "Procedure"
      }
    },
    {
      "fullUrl": "urn:uuid:fab4c98b-271b-448b-a729-48ae2a104784",
      "resource": {
        "resourceType": "Procedure",
        "status": "completed",
        "code": {
          "coding": [
            {
              "system": "http://snomed.info/sct",
              "code": "232717009",
              "display": "Coronography-e9593de1"
            }
          ]
        },
        "subject": {
          "reference": "urn:uuid:d5b144db-d341-4c8d-804a-759fb5eb22e8"
        },
        "performedPeriod": {
          "start": "2025-02-04T08:00:00Z",
          "end": "2025-02-04T10:00:00Z"
        }
      },
      "request": {
        "method": "POST",
        "url": "Procedure"
      }
    },
    {
      "fullUrl": "urn:uuid:4d250df8-f001-4c0b-9427-e1bc83616ced",
      "resource": {
        "resourceType": "Procedure",
        "status": "completed",
        "code": {
          "coding": [
            {
              "system": "http://snomed.info/sct",
              "code": "36969009",
              "display": "BloodDraw-e9593de1"
            }
          ]
        },
        "subject": {
          "reference": "urn:uuid:569f5fd9-7295-4a2e-bda7-c2cd0439c80c"
        },
        "encounter": {
          "reference": "urn:uuid:0961d632-1a6b-4ef2-a930-69096c6529c7"
        },
        "performedDateTime": "2025-03-15T14:15:00Z"
      },
      "request": {
        "method": "POST",
        "url": "Procedure"
      }
    },
    {
      "fullUrl": "urn:uuid:3fa3f4f4-8e7e-43e2-8446-2a76e35bd927",
      "resource": {
        "resourceType": "Procedure",
        "status": "in-progress",
        "code": {
          "coding": [
            {
              "system": "http://snomed.info/sct",
              "code": "418891003",
              "display": "Dressing-e9593de1"
            }
          ]
        },
        "subject": {
          "reference": "urn:uuid:4d240a76-a56d-4e9a-8111-5855b8aeb45f"
        },
        "encounter": {
          "reference": "urn:uuid:2ffbea68-cd6f-4a4e-8150-053c3aeea08e"
        },
        "performedDateTime": "2026-02-25T11:00:00Z"
      },
      "request": {
        "method": "POST",
        "url": "Procedure"
      }
    },
    {
      "fullUrl": "urn:uuid:490cd85f-231f-49e7-9d85-3fe2fa4d78ef",
      "resource": {
        "resourceType": "Procedure",
        "status": "completed",
        "code": {
          "coding": [
            {
              "system": "http://snomed.info/sct",
              "code": "274025005",
              "display": "EKG-e9593de1"
            }
          ]
        },
        "subject": {
          "reference": "urn:uuid:efd0a560-277c-4b71-add3-6a3e044e9d0c"
        },
        "encounter": {
          "reference": "urn:uuid:1ce62d1d-f6f9-460b-937b-4734bd5e7cc6"
        },
        "performedDateTime": "2025-06-01T11:45:00Z"
      },
      "request": {
        "method": "POST",
        "url": "Procedure"
      }
    },
    {
      "fullUrl": "urn:uuid:67c80082-ca97-4235-9839-b0091e037722",
      "resource": {
        "resourceType": "ServiceRequest",
        "status": "active",
        "intent": "order",
        "code": {
          "coding": [
            {
              "system": "http://snomed.info/sct",
              "code": "26604007",
              "display": "FBC-e9593de1"
            }
          ]
        },
        "subject": {
          "reference": "urn:uuid:d5b144db-d341-4c8d-804a-759fb5eb22e8"
        },
        "encounter": {
          "reference": "urn:uuid:5ec05ca7-38be-4f03-a648-55d7cf9d4d27"
        },
        "requester": {
          "reference": "urn:uuid:771e0828-88c5-493a-85a0-a7b0a9621eef"
        },
        "authoredOn": "2025-01-10"
      },
      "request": {
        "method": "POST",
        "url": "ServiceRequest"
      }
    },
    {
      "fullUrl": "urn:uuid:7b61db44-b4d2-4a1c-80d6-45d42104e7f2",
      "resource": {
        "resourceType": "ServiceRequest",
        "status": "completed",
        "intent": "order",
        "code": {
          "coding": [
            {
              "system": "http://snomed.info/sct",
              "code": "77477000",
              "display": "CTScan-e9593de1"
            }
          ]
        },
        "subject": {
          "reference": "urn:uuid:d5b144db-d341-4c8d-804a-759fb5eb22e8"
        },
        "encounter": {
          "reference": "urn:uuid:ac6010f9-8a4d-441d-9d30-33372524d004"
        },
        "authoredOn": "2025-02-01"
      },
      "request": {
        "method": "POST",
        "url": "ServiceRequest"
      }
    },
    {
      "fullUrl": "urn:uuid:fbadb539-5189-45da-9621-fcf9601e80bb",
      "resource": {
        "resourceType": "ServiceRequest",
        "status": "active",
        "intent": "order",
        "code": {
          "coding": [
            {
              "system": "http://snomed.info/sct",
              "code": "104001",
              "display": "Excision-e9593de1"
            }
          ]
        },
        "subject": {
          "reference": "urn:uuid:569f5fd9-7295-4a2e-bda7-c2cd0439c80c"
        },
        "authoredOn": "2025-03-15"
      },
      "request": {
        "method": "POST",
        "url": "ServiceRequest"
      }
    },
    {
      "fullUrl": "urn:uuid:772ad318-bbdc-4332-bc6c-b235cd478f3c",
      "resource": {
        "resourceType": "ServiceRequest",
        "status": "active",
        "intent": "order",
        "code": {
          "coding": [
            {
              "system": "http://snomed.info/sct",
              "code": "252275004",
              "display": "Imaging-e9593de1"
            }
          ]
        },
        "subject": {
          "reference": "urn:uuid:4d240a76-a56d-4e9a-8111-5855b8aeb45f"
        },
        "encounter": {
          "reference": "urn:uuid:2ffbea68-cd6f-4a4e-8150-053c3aeea08e"
        },
        "authoredOn": "2026-02-25"
      },
      "request": {
        "method": "POST",
        "url": "ServiceRequest"
      }
    },
    {
      "fullUrl": "urn:uuid:806b0b87-dfb1-4b01-a113-442dee780aa9",
      "resource": {
        "resourceType": "ServiceRequest",
        "status": "active",
        "intent": "plan",
        "code": {
          "coding": [
            {
              "system": "http://snomed.info/sct",
              "code": "409063005",
              "display": "Counseling-e9593de1"
            }
          ]
        },
        "subject": {
          "reference": "urn:uuid:efd0a560-277c-4b71-add3-6a3e044e9d0c"
        },
        "authoredOn": "2025-06-01"
      },
      "request": {
        "method": "POST",
        "url": "ServiceRequest"
      }
    },
    {
      "fullUrl": "urn:uuid:72f2bf8e-fee3-4efe-a858-72687a615aea",
      "resource": {
        "resourceType": "CarePlan",
        "status": "active",
        "intent": "plan",
        "title": "DM Management-e9593de1",
        "subject": {
          "reference": "urn:uuid:d5b144db-d341-4c8d-804a-759fb5eb22e8"
        },
        "encounter": {
          "reference": "urn:uuid:5ec05ca7-38be-4f03-a648-55d7cf9d4d27"
        },
        "addresses": [
          {
            "reference": "urn:uuid:fd4a25ce-f45d-47ed-b709-f0f4b9f2fcd8"
          }
        ],
        "category": [
          {
            "coding": [
              {
                "system": "http://hl7.org/fhir/us/core/CodeSystem/careplan-category",
                "code": "assess-plan"
              }
            ]
          }
        ]
      },
      "request": {
        "method": "POST",
        "url": "CarePlan"
      }
    },
    {
      "fullUrl": "urn:uuid:032479fd-5bf0-4c86-af70-497209385e12",
      "resource": {
        "resourceType": "CarePlan",
        "status": "active",
        "intent": "plan",
        "title": "HTN Management-e9593de1",
        "subject": {
          "reference": "urn:uuid:d5b144db-d341-4c8d-804a-759fb5eb22e8"
        },
        "addresses": [
          {
            "reference": "urn:uuid:d51393a9-a3f7-4577-b3f3-86d51ae57350"
          }
        ]
      },
      "request": {
        "method": "POST",
        "url": "CarePlan"
      }
    },
    {
      "fullUrl": "urn:uuid:adb0530b-8033-4d71-86d9-2673964e9565",
      "resource": {
        "resourceType": "CarePlan",
        "status": "completed",
        "intent": "plan",
        "title": "Pneumonia Recovery-e9593de1",
        "subject": {
          "reference": "urn:uuid:569f5fd9-7295-4a2e-bda7-c2cd0439c80c"
        },
        "addresses": [
          {
            "reference": "urn:uuid:cdfa4f0e-de1c-4b24-aadf-296d942e8c28"
          }
        ]
      },
      "request": {
        "method": "POST",
        "url": "CarePlan"
      }
    },
    {
      "fullUrl": "urn:uuid:4d8f38f9-0ecd-460a-93f7-13b556a17b62",
      "resource": {
        "resourceType": "CarePlan",
        "status": "active",
        "intent": "plan",
        "title": "DM1 Care-e9593de1",
        "subject": {
          "reference": "urn:uuid:4d240a76-a56d-4e9a-8111-5855b8aeb45f"
        },
        "addresses": [
          {
            "reference": "urn:uuid:fd22b5ed-815d-4135-a6ed-72cff4e4afdf"
          }
        ]
      },
      "request": {
        "method": "POST",
        "url": "CarePlan"
      }
    },
    {
      "fullUrl": "urn:uuid:1d978a85-6200-4f73-ad1e-baa85cfec6c9",
      "resource": {
        "resourceType": "CarePlan",
        "status": "active",
        "intent": "plan",
        "title": "Asthma Action-e9593de1",
        "subject": {
          "reference": "urn:uuid:efd0a560-277c-4b71-add3-6a3e044e9d0c"
        },
        "encounter": {
          "reference": "urn:uuid:1ce62d1d-f6f9-460b-937b-4734bd5e7cc6"
        },
        "addresses": [
          {
            "reference": "urn:uuid:c9a4b5fd-606e-4e1f-8bd2-33b6499c25e0"
          }
        ]
      },
      "request": {
        "method": "POST",
        "url": "CarePlan"
      }
    },
    {
      "fullUrl": "urn:uuid:2af0a1d0-0e5d-4bf0-89c8-4edce14a1315",
      "resource": {
        "resourceType": "Immunization",
        "status": "completed",
        "vaccineCode": {
          "coding": [
            {
              "system": "http://hl7.org/fhir/sid/cvx",
              "code": "208",
              "display": "COVID19-e9593de1"
            }
          ]
        },
        "patient": {
          "reference": "urn:uuid:d5b144db-d341-4c8d-804a-759fb5eb22e8"
        },
        "occurrenceDateTime": "2025-01-15T09:00:00Z",
        "encounter": {
          "reference": "urn:uuid:5ec05ca7-38be-4f03-a648-55d7cf9d4d27"
        }
      },
      "request": {
        "method": "POST",
        "url": "Immunization"
      }
    },
    {
      "fullUrl": "urn:uuid:2ef5ea3b-fe8d-4863-8c45-c99a8ecce061",
      "resource": {
        "resourceType": "Immunization",
        "status": "completed",
        "vaccineCode": {
          "coding": [
            {
              "system": "http://hl7.org/fhir/sid/cvx",
              "code": "141",
              "display": "Influenza-e9593de1"
            }
          ]
        },
        "patient": {
          "reference": "urn:uuid:d5b144db-d341-4c8d-804a-759fb5eb22e8"
        },
        "occurrenceDateTime": "2025-10-01"
      },
      "request": {
        "method": "POST",
        "url": "Immunization"
      }
    },
    {
      "fullUrl": "urn:uuid:b244b70d-adc5-484f-beaa-2d445dbe13e3",
      "resource": {
        "resourceType": "Immunization",
        "status": "completed",
        "vaccineCode": {
          "coding": [
            {
              "system": "http://hl7.org/fhir/sid/cvx",
              "code": "08",
              "display": "HepB-e9593de1"
            }
          ]
        },
        "patient": {
          "reference": "urn:uuid:569f5fd9-7295-4a2e-bda7-c2cd0439c80c"
        },
        "occurrenceDateTime": "2025-04-01"
      },
      "request": {
        "method": "POST",
        "url": "Immunization"
      }
    },
    {
      "fullUrl": "urn:uuid:5edc6d40-c79d-4a4e-9205-cd83c8217005",
      "resource": {
        "resourceType": "Immunization",
        "status": "not-done",
        "vaccineCode": {
          "coding": [
            {
              "system": "http://hl7.org/fhir/sid/cvx",
              "code": "03",
              "display": "MMR-e9593de1"
            }
          ]
        },
        "patient": {
          "reference": "urn:uuid:e8777c2a-438d-4ac8-935a-76c44d4c49a4"
        },
        "occurrenceDateTime": "2025-05-01",
        "statusReason": {
          "coding": [
            {
              "system": "http://terminology.hl7.org/CodeSystem/v3-ActReason",
              "code": "MEDPREC"
            }
          ]
        }
      },
      "request": {
        "method": "POST",
        "url": "Immunization"
      }
    },
    {
      "fullUrl": "urn:uuid:81fa5dc7-c360-47d4-a4eb-d9707145f731",
      "resource": {
        "resourceType": "Immunization",
        "status": "completed",
        "vaccineCode": {
          "coding": [
            {
              "system": "http://hl7.org/fhir/sid/cvx",
              "code": "113",
              "display": "Tdap-e9593de1"
            }
          ]
        },
        "patient": {
          "reference": "urn:uuid:efd0a560-277c-4b71-add3-6a3e044e9d0c"
        },
        "occurrenceDateTime": "2025-06-01",
        "encounter": {
          "reference": "urn:uuid:1ce62d1d-f6f9-460b-937b-4734bd5e7cc6"
        }
      },
      "request": {
        "method": "POST",
        "url": "Immunization"
      }
    }
  ]
}