{
  "resourceType": "Bundle",
  "type": "transaction",
  "entry": [
    {
      "fullUrl": "urn:uuid:1a2063ef-f30f-491d-baa2-3295d7667822",
      "resource": {
        "resourceType": "Organization",
        "name": "Central Hospital-50a3e164",
        "identifier": [
          {
            "system": "http://example.com/org",
            "value": "ORG-001-50a3e164"
          }
        ],
        "type": [
          {
            "coding": [
              {
                "system": "http://terminology.hl7.org/CodeSystem/organization-type",
                "code": "prov"
              }
            ]
          }
        ],
        "telecom": [
          {
            "system": "phone",
            "value": "555-0100"
          }
        ],
        "address": [
          {
            "line": [
              "100 Main St"
            ],
            "city": "Springfield",
            "state": "IL",
            "postalCode": "62701",
            "country": "US"
          }
        ]
      },
      "request": {
        "method": "POST",
        "url": "Organization"
      }
    },
    {
      "fullUrl": "urn:uuid:3f35332c-9558-459d-9c90-1242c03e721c",
      "resource": {
        "resourceType": "Organization",
        "name": "East Wing Lab-50a3e164",
        "identifier": [
          {
            "system": "http://example.com/org",
            "value": "ORG-002-50a3e164"
          }
        ],
        "type": [
          {
            "coding": [
              {
                "system": "http://terminology.hl7.org/CodeSystem/organization-type",
                "code": "dept"
              }
            ]
          }
        ]
      },
      "request": {
        "method": "POST",
        "url": "Organization"
      }
    },
    {
      "fullUrl": "urn:uuid:78883f60-cc37-453b-9028-32843276b3f0",
      "resource": {
        "resourceType": "Organization",
        "name": "Pharmacy Services-50a3e164",
        "identifier": [
          {
            "system": "http://example.com/org",
            "value": "ORG-003-50a3e164"
          }
        ]
      },
      "request": {
        "method": "POST",
        "url": "Organization"
      }
    },
    {
      "fullUrl": "urn:uuid:699af88b-e65a-4c2b-a1a4-cb4ffe1cf848",
      "resource": {
        "resourceType": "Organization",
        "name": "Insurance Corp-50a3e164",
        "identifier": [
          {
            "system": "http://example.com/org",
            "value": "ORG-004-50a3e164"
          }
        ],
        "type": [
          {
            "coding": [
              {
                "system": "http://terminology.hl7.org/CodeSystem/organization-type",
                "code": "ins"
              }
            ]
          }
        ]
      },
      "request": {
        "method": "POST",
        "url": "Organization"
      }
    },
    {
      "fullUrl": "urn:uuid:83014f56-b51c-45d4-a1d4-4422c61417ac",
      "resource": {
        "resourceType": "Organization",
        "name": "Specialty Clinic-50a3e164",
        "identifier": [
          {
            "system": "http://example.com/org",
            "value": "ORG-005-50a3e164"
          }
        ],
        "address": [
          {
            "line": [
              "200 Oak Ave"
            ],
            "city": "Shelbyville",
            "state": "IL",
            "postalCode": "62702",
            "country": "US"
          }
        ]
      },
      "request": {
        "method": "POST",
        "url": "Organization"
      }
    },
    {
      "fullUrl": "urn:uuid:43c04270-6a62-40ca-8969-bdac6e30d89d",
      "resource": {
        "resourceType": "Practitioner",
        "name": [
          {
            "family": "Smith-50a3e164",
            "given": [
              "John",
              "A"
            ],
            "prefix": [
              "Dr."
            ]
          }
        ],
        "identifier": [
          {
            "system": "http://example.com/npi",
            "value": "NPI-001-50a3e164"
          }
        ],
        "gender": "male",
        "birthDate": "1975-03-15",
        "telecom": [
          {
            "system": "email",
            "value": "john.smith-50a3e164@hospital.com"
          }
        ],
        "address": [
          {
            "line": [
              "100 Main St"
            ],
            "city": "Springfield",
            "state": "IL",
            "postalCode": "62701",
            "country": "US"
          }
        ]
      },
      "request": {
        "method": "POST",
        "url": "Practitioner"
      }
    },
    {
      "fullUrl": "urn:uuid:61f0d71e-4aca-4e58-8c2b-f3e25cc1d8b3",
      "resource": {
        "resourceType": "Practitioner",
        "name": [
          {
            "family": "Johnson-50a3e164",
            "given": [
              "Emily"
            ]
          }
        ],
        "identifier": [
          {
            "system": "http://example.com/npi",
            "value": "NPI-002-50a3e164"
          }
        ],
        "gender": "female"
      },
      "request": {
        "method": "POST",
        "url": "Practitioner"
      }
    },
    {
      "fullUrl": "urn:uuid:10e7fa8e-366e-410a-aa3a-21d5670d2141",
      "resource": {
        "resourceType": "Practitioner",
        "name": [
          {
            "family": "Williams-50a3e164",
            "given": [
              "Robert"
            ]
          }
        ],
        "identifier": [
          {
            "system": "http://example.com/npi",
            "value": "NPI-003-50a3e164"
          }
        ],
        "gender": "male"
      },
      "request": {
        "method": "POST",
        "url": "Practitioner"
      }
    },
    {
      "fullUrl": "urn:uuid:15918dfd-eb66-4c7b-bea0-e27ed4870f83",
      "resource": {
        "resourceType": "Practitioner",
        "name": [
          {
            "family": "Brown-50a3e164",
            "given": [
              "Sarah"
            ]
          }
        ],
        "identifier": [
          {
            "system": "http://example.com/npi",
            "value": "NPI-004-50a3e164"
          }
        ],
        "gender": "female"
      },
      "request": {
        "method": "POST",
        "url": "Practitioner"
      }
    },
    {
      "fullUrl": "urn:uuid:5d8629d1-b76a-4688-9082-e233eda6b440",
      "resource": {
        "resourceType": "Practitioner",
        "name": [
          {
            "family": "Davis-50a3e164",
            "given": [
              "Michael",
              "J"
            ]
          }
        ],
        "identifier": [
          {
            "system": "http://example.com/npi",
            "value": "NPI-005-50a3e164"
          }
        ],
        "gender": "male",
        "telecom": [
          {
            "system": "phone",
            "value": "555-0200"
          },
          {
            "system": "email",
            "value": "michael.davis-50a3e164@hospital.com"
          }
        ]
      },
      "request": {
        "method": "POST",
        "url": "Practitioner"
      }
    },
    {
      "fullUrl": "urn:uuid:fde2d574-cfcb-494d-93af-f8d19c6b9176",
      "resource": {
        "resourceType": "PractitionerRole",
        "practitioner": {
          "reference": "urn:uuid:43c04270-6a62-40ca-8969-bdac6e30d89d"
        },
        "organization": {
          "reference": "urn:uuid:1a2063ef-f30f-491d-baa2-3295d7667822"
        },
        "code": [
          {
            "coding": [
              {
                "system": "http://snomed.info/sct",
                "code": "59058001",
                "display": "GP-50a3e164"
              }
            ]
          }
        ],
        "active": true
      },
      "request": {
        "method": "POST",
        "url": "PractitionerRole"
      }
    },
    {
      "fullUrl": "urn:uuid:e19ad18f-d801-4b5d-8e14-0173c20e7df7",
      "resource": {
        "resourceType": "PractitionerRole",
        "practitioner": {
          "reference": "urn:uuid:61f0d71e-4aca-4e58-8c2b-f3e25cc1d8b3"
        },
        "organization": {
          "reference": "urn:uuid:3f35332c-9558-459d-9c90-1242c03e721c"
        },
        "code": [
          {
            "coding": [
              {
                "system": "http://snomed.info/sct",
                "code": "61246008",
                "display": "Lab-50a3e164"
              }
            ]
          }
        ]
      },
      "request": {
        "method": "POST",
        "url": "PractitionerRole"
      }
    },
    {
      "fullUrl": "urn:uuid:7f1baa76-6500-467b-ae1e-6aefc913c50c",
      "resource": {
        "resourceType": "PractitionerRole",
        "practitioner": {
          "reference": "urn:uuid:10e7fa8e-366e-410a-aa3a-21d5670d2141"
        },
        "organization": {
          "reference": "urn:uuid:1a2063ef-f30f-491d-baa2-3295d7667822"
        },
        "code": [
          {
            "coding": [
              {
                "system": "http://snomed.info/sct",
                "code": "304292004",
                "display": "Surgeon-50a3e164"
              }
            ]
          }
        ]
      },
      "request": {
        "method": "POST",
        "url": "PractitionerRole"
      }
    },
    {
      "fullUrl": "urn:uuid:5480bfb5-0cab-453e-a2ae-c428bfa07378",
      "resource": {
        "resourceType": "PractitionerRole",
        "practitioner": {
          "reference": "urn:uuid:15918dfd-eb66-4c7b-bea0-e27ed4870f83"
        },
        "organization": {
          "reference": "urn:uuid:78883f60-cc37-453b-9028-32843276b3f0"
        },
        "code": [
          {
            "coding": [
              {
                "system": "http://snomed.info/sct",
                "code": "46255001",
                "display": "Pharmacist-50a3e164"
              }
            ]
          }
        ]
      },
      "request": {
        "method": "POST",
        "url": "PractitionerRole"
      }
    },
    {
      "fullUrl": "urn:uuid:7695909b-bf95-421d-ac8f-23db090d2e8b",
      "resource": {
        "resourceType": "PractitionerRole",
        "practitioner": {
          "reference": "urn:uuid:5d8629d1-b76a-4688-9082-e233eda6b440"
        },
        "organization": {
          "reference": "urn:uuid:83014f56-b51c-45d4-a1d4-4422c61417ac"
        },
        "code": [
          {
            "coding": [
              {
                "system": "http://snomed.info/sct",
                "code": "309343006",
                "display": "Specialist-50a3e164"
              }
            ]
          }
        ]
      },
      "request": {
        "method": "POST",
        "url": "PractitionerRole"
      }
    },
    {
      "fullUrl": "urn:uuid:1e4ac5a6-c3b4-459c-ae1c-d446f3e87221",
      "resource": {
        "resourceType": "Patient",
        "active": true,
        "gender": "male",
        "birthDate": "1985-06-15",
        "name": [
          {
            "use": "official",
            "family": "Doe-50a3e164",
            "given": [
              "John",
              "Michael"
            ]
          },
          {
            "use": "nickname",
            "given": [
              "Johnny"
            ]
          }
        ],
        "identifier": [
          {
            "system": "http://example.com/mrn",
            "value": "MRN-001-50a3e164"
          },
          {
            "system": "http://example.com/ssn",
            "value": "SSN-001-50a3e164"
          }
        ],
        "telecom": [
          {
            "system": "phone",
            "value": "555-1001",
            "use": "home"
          },
          {
            "system": "email",
            "value": "john.doe-50a3e164@example.com",
            "use": "work"
          }
        ],
        "address": [
          {
            "use": "home",
            "line": [
              "123 Elm St",
              "Apt 4B"
            ],
            "city": "Springfield",
            "state": "IL",
            "postalCode": "62701",
            "country": "US"
          }
        ],
        "managingOrganization": {
          "reference": "urn:uuid:1a2063ef-f30f-491d-baa2-3295d7667822"
        },
        "generalPractitioner": [
          {
            "reference": "urn:uuid:43c04270-6a62-40ca-8969-bdac6e30d89d"
          }
        ],
        "meta": {
          "tag": [
            {
              "system": "http://example.com/tags",
              "code": "vip-50a3e164"
            }
          ]
        },
        "maritalStatus": {
          "coding": [
            {
              "system": "http://terminology.hl7.org/CodeSystem/v3-MaritalStatus",
              "code": "M",
              "display": "Married"
            }
          ]
        },
        "communication": [
          {
            "language": {
              "coding": [
                {
                  "system": "urn:ietf:bcp:47",
                  "code": "en"
                }
              ]
            }
          }
        ]
      },
      "request": {
        "method": "POST",
        "url": "Patient"
      }
    },
    {
      "fullUrl": "urn:uuid:e4ba2ea1-712d-42b6-b8f9-175a06711d0d",
      "resource": {
        "resourceType": "Patient",
        "active": true,
        "gender": "female",
        "birthDate": "1990-11-22",
        "name": [
          {
            "use": "official",
            "family": "Smith-50a3e164",
            "given": [
              "Jane",
              "Elizabeth"
            ]
          }
        ],
        "identifier": [
          {
            "system": "http://example.com/mrn",
            "value": "MRN-002-50a3e164"
          }
        ],
        "telecom": [
          {
            "system": "phone",
            "value": "555-1002"
          }
        ],
        "address": [
          {
            "use": "home",
            "line": [
              "456 Oak Ave"
            ],
            "city": "Chicago",
            "state": "IL",
            "postalCode": "60601",
            "country": "US"
          }
        ],
        "managingOrganization": {
          "reference": "urn:uuid:1a2063ef-f30f-491d-baa2-3295d7667822"
        }
      },
      "request": {
        "method": "POST",
        "url": "Patient"
      }
    },
    {
      "fullUrl": "urn:uuid:8f4e6a97-dfe6-4204-b706-ee1591213292",
      "resource": {
        "resourceType": "Patient",
        "active": true,
        "gender": "male",
        "birthDate": "1978-01-30",
        "name": [
          {
            "use": "official",
            "family": "Williams-50a3e164",
            "given": [
              "Robert"
            ]
          }
        ],
        "identifier": [
          {
            "system": "http://example.com/mrn",
            "value": "MRN-003-50a3e164"
          }
        ],
        "address": [
          {
            "line": [
              "789 Pine Rd"
            ],
            "city": "Shelbyville",
            "state": "IL",
            "postalCode": "62702",
            "country": "US"
          },
          {
            "use": "work",
            "line": [
              "100 Main St"
            ],
            "city": "Springfield",
            "state": "IL"
          }
        ],
        "generalPractitioner": [
          {
            "reference": "urn:uuid:10e7fa8e-366e-410a-aa3a-21d5670d2141"
          }
        ],
        "meta": {
          "tag": [
            {
              "system": "http://example.com/tags",
              "code": "urgent-50a3e164"
            },
            {
              "system": "http://example.com/tags",
              "code": "flagged-50a3e164"
            }
          ],
          "security": [
            {
              "system": "http://terminology.hl7.org/CodeSystem/v3-Confidentiality",
              "code": "R"
            }
          ]
        }
      },
      "request": {
        "method": "POST",
        "url": "Patient"
      }
    },
    {
      "fullUrl": "urn:uuid:61fb9cab-16d5-41bc-9ebb-14b5a9e8742a",
      "resource": {
        "resourceType": "Patient",
        "active": false,
        "gender": "female",
        "birthDate": "2005-08-10",
        "name": [
          {
            "use": "official",
            "family": "Davis-50a3e164",
            "given": [
              "Alice"
            ]
          }
        ],
        "identifier": [
          {
            "system": "http://example.com/mrn",
            "value": "MRN-004-50a3e164"
          }
        ],
        "deceasedBoolean": false
      },
      "request": {
        "method": "POST",
        "url": "Patient"
      }
    },
    {
      "fullUrl": "urn:uuid:b009f764-6a82-4c91-b907-2cb4fbe2605b",
      "resource": {
        "resourceType": "Patient",
        "active": true,
        "gender": "other",
        "birthDate": "2000-03-01",
        "name": [
          {
            "use": "official",
            "family": "Garcia-50a3e164",
            "given": [
              "Alex",
              "M"
            ]
          }
        ],
        "identifier": [
          {
            "system": "http://example.com/mrn",
            "value": "MRN-005-50a3e164"
          }
        ],
        "telecom": [
          {
            "system": "email",
            "value": "alex.garcia-50a3e164@example.com"
          }
        ]
      },
      "request": {
        "method": "POST",
        "url": "Patient"
      }
    },
    {
      "fullUrl": "urn:uuid:77cd9cb5-137f-4cb1-a5ad-3a2d90dc6ce2",
      "resource": {
        "resourceType": "Patient",
        "active": true,
        "gender": "male",
        "birthDate": "1960-12-25",
        "name": [
          {
            "use": "official",
            "family": "Wilson-50a3e164",
            "given": [
              "George"
            ]
          }
        ],
        "identifier": [
          {
            "system": "http://example.com/mrn",
            "value": "MRN-006-50a3e164"
          }
        ],
        "deceasedDateTime": "2025-01-15T10:30:00Z"
      },
      "request": {
        "method": "POST",
        "url": "Patient"
      }
    },
    {
      "fullUrl": "urn:uuid:f3c20e43-f0be-4111-abe1-c08419017bab",
      "resource": {
        "resourceType": "Patient",
        "active": true,
        "gender": "female",
        "birthDate": "1995-07-04",
        "name": [
          {
            "use": "official",
            "family": "Martinez-50a3e164",
            "given": [
              "Sofia",
              "Isabella"
            ]
          },
          {
            "use": "maiden",
            "family": "Lopez-50a3e164"
          }
        ],
        "identifier": [
          {
            "system": "http://example.com/mrn",
            "value": "MRN-007-50a3e164"
          },
          {
            "system": "http://example.com/passport",
            "value": "PP-007-50a3e164"
          }
        ],
        "telecom": [
          {
            "system": "phone",
            "value": "555-1007",
            "use": "mobile"
          },
          {
            "system": "phone",
            "value": "555-1008",
            "use": "home"
          },
          {
            "system": "email",
            "value": "sofia-50a3e164@example.com"
          }
        ],
        "address": [
          {
            "use": "home",
            "line": [
              "1000 Maple Dr"
            ],
            "city": "Capital City",
            "state": "CA",
            "postalCode": "90001",
            "country": "US"
          },
          {
            "use": "temp",
            "city": "TempCity",
            "state": "NY"
          }
        ],
        "contact": [
          {
            "relationship": [
              {
                "coding": [
                  {
                    "system": "http://terminology.hl7.org/CodeSystem/v2-0131",
                    "code": "N"
                  }
                ]
              }
            ],
            "name": {
              "family": "EmergencyContact-50a3e164",
              "given": [
                "Carlos"
              ]
            },
            "telecom": [
              {
                "system": "phone",
                "value": "555-9999"
              }
            ]
          }
        ]
      },
      "request": {
        "method": "POST",
        "url": "Patient"
      }
    },
    {
      "fullUrl": "urn:uuid:f570b32a-94d6-40fd-9520-7f6726671312",
      "resource": {
        "resourceType": "Encounter",
        "status": "finished",
        "class": {
          "system": "http://terminology.hl7.org/CodeSystem/v3-ActCode",
          "code": "AMB",
          "display": "Ambulatory-50a3e164"
        },
        "subject": {
          "reference": "urn:uuid:1e4ac5a6-c3b4-459c-ae1c-d446f3e87221"
        },
        "serviceProvider": {
          "reference": "urn:uuid:1a2063ef-f30f-491d-baa2-3295d7667822"
        },
        "participant": [
          {
            "individual": {
              "reference": "urn:uuid:43c04270-6a62-40ca-8969-bdac6e30d89d"
            }
          }
        ],
        "period": {
          "start": "2025-01-10T08:00:00Z",
          "end": "2025-01-10T09:00:00Z"
        },
        "type": [
          {
            "coding": [
              {
                "system": "http://snomed.info/sct",
                "code": "308335008",
                "display": "OPD-50a3e164"
              }
            ]
          }
        ]
      },
      "request": {
        "method": "POST",
        "url": "Encounter"
      }
    },
    {
      "fullUrl": "urn:uuid:53b3680c-ba2d-4761-8cd6-17327c5b0bd8",
      "resource": {
        "resourceType": "Encounter",
        "status": "finished",
        "class": {
          "system": "http://terminology.hl7.org/CodeSystem/v3-ActCode",
          "code": "IMP"
        },
        "subject": {
          "reference": "urn:uuid:1e4ac5a6-c3b4-459c-ae1c-d446f3e87221"
        },
        "serviceProvider": {
          "reference": "urn:uuid:1a2063ef-f30f-491d-baa2-3295d7667822"
        },
        "period": {
          "start": "2025-02-01T10:00:00Z",
          "end": "2025-02-05T14:00:00Z"
        }
      },
      "request": {
        "method": "POST",
        "url": "Encounter"
      }
    },
    {
      "fullUrl": "urn:uuid:f74f292d-a184-4721-a402-7092476456d1",
      "resource": {
        "resourceType": "Encounter",
        "status": "finished",
        "class": {
          "system": "http://terminology.hl7.org/CodeSystem/v3-ActCode",
          "code": "AMB"
        },
        "subject": {
          "reference": "urn:uuid:e4ba2ea1-712d-42b6-b8f9-175a06711d0d"
        },
        "serviceProvider": {
          "reference": "urn:uuid:1a2063ef-f30f-491d-baa2-3295d7667822"
        },
        "participant": [
          {
            "individual": {
              "reference": "urn:uuid:61f0d71e-4aca-4e58-8c2b-f3e25cc1d8b3"
            }
          }
        ],
        "period": {
          "start": "2025-03-15T14:00:00Z"
        }
      },
      "request": {
        "method": "POST",
        "url": "Encounter"
      }
    },
    {
      "fullUrl": "urn:uuid:4c8e1da7-ccc0-46cc-ac68-ceebd4d2579d",
      "resource": {
        "resourceType": "Encounter",
        "status": "in-progress",
        "class": {
          "system": "http://terminology.hl7.org/CodeSystem/v3-ActCode",
          "code": "EMER"
        },
        "subject": {
          "reference": "urn:uuid:8f4e6a97-dfe6-4204-b706-ee1591213292"
        },
        "serviceProvider": {
          "reference": "urn:uuid:1a2063ef-f30f-491d-baa2-3295d7667822"
        },
        "period": {
          "start": "2026-02-25T10:00:00Z"
        }
      },
      "request": {
        "method": "POST",
        "url": "Encounter"
      }
    },
    {
      "fullUrl": "urn:uuid:88184f4e-0c5b-46a5-b3e8-55e7e423a9a0",
      "resource": {
        "resourceType": "Encounter",
        "status": "planned",
        "class": {
          "system": "http://terminology.hl7.org/CodeSystem/v3-ActCode",
          "code": "AMB"
        },
        "subject": {
          "reference": "urn:uuid:61fb9cab-16d5-41bc-9ebb-14b5a9e8742a"
        },
        "period": {
          "start": "2026-03-01T09:00:00Z"
        }
      },
      "request": {
        "method": "POST",
        "url": "Encounter"
      }
    },
    {
      "fullUrl": "urn:uuid:1419552a-951e-4672-9348-5bce87f1f28e",
      "resource": {
        "resourceType": "Encounter",
        "status": "finished",
        "class": {
          "system": "http://terminology.hl7.org/CodeSystem/v3-ActCode",
          "code": "AMB"
        },
        "subject": {
          "reference": "urn:uuid:f3c20e43-f0be-4111-abe1-c08419017bab"
        },
        "serviceProvider": {
          "reference": "urn:uuid:83014f56-b51c-45d4-a1d4-4422c61417ac"
        },
        "participant": [
          {
            "individual": {
              "reference": "urn:uuid:5d8629d1-b76a-4688-9082-e233eda6b440"
            }
          }
        ],
        "period": {
          "start": "2025-06-01T11:00:00Z",
          "end": "2025-06-01T12:00:00Z"
        }
      },
      "request": {
        "method": "POST",
        "url": "Encounter"
      }
    },
    {
      "fullUrl": "urn:uuid:8a2cc771-c814-4e64-b58e-68d0942c8419",
      "resource": {
        "resourceType": "Condition",
        "clinicalStatus": {
          "coding": [
            {
              "system": "http://terminology.hl7.org/CodeSystem/condition-clinical",
              "code": "active"
            }
          ]
        },
        "verificationStatus": {
          "coding": [
            {
              "system": "http://terminology.hl7.org/CodeSystem/condition-ver-status",
              "code": "confirmed"
            }
          ]
        },
        "code": {
          "coding": [
            {
              "system": "http://snomed.info/sct",
              "code": "44054006",
              "display": "Type2DM-50a3e164"
            }
          ]
        },
        "subject": {
          "reference": "urn:uuid:1e4ac5a6-c3b4-459c-ae1c-d446f3e87221"
        },
        "encounter": {
          "reference": "urn:uuid:f570b32a-94d6-40fd-9520-7f6726671312"
        },
        "onsetDateTime": "2020-01-01"
      },
      "request": {
        "method": "POST",
        "url": "Condition"
      }
    },
    {
      "fullUrl": "urn:uuid:e6d1e23d-9012-4552-92dd-0e7de06bb260",
      "resource": {
        "resourceType": "Condition",
        "clinicalStatus": {
          "coding": [
            {
              "system": "http://terminology.hl7.org/CodeSystem/condition-clinical",
              "code": "active"
            }
          ]
        },
        "verificationStatus": {
          "coding": [
            {
              "system": "http://terminology.hl7.org/CodeSystem/condition-ver-status",
              "code": "confirmed"
            }
          ]
        },
        "code": {
          "coding": [
            {
              "system": "http://snomed.info/sct",
              "code": "38341003",
              "display": "Hypertension-50a3e164"
            }
          ]
        },
        "subject": {
          "reference": "urn:uuid:1e4ac5a6-c3b4-459c-ae1c-d446f3e87221"
        },
        "onsetDateTime": "2018-06-15"
      },
      "request": {
        "method": "POST",
        "url": "Condition"
      }
    },
    {
      "fullUrl": "urn:uuid:b38bbdd6-9e80-4b03-9d72-14a3d457c97e",
      "resource": {
        "resourceType": "Condition",
        "clinicalStatus": {
          "coding": [
            {
              "system": "http://terminology.hl7.org/CodeSystem/condition-clinical",
              "code": "resolved"
            }
          ]
        },
        "code": {
          "coding": [
            {
              "system": "http://snomed.info/sct",
              "code": "195662009",
              "display": "Pneumonia-50a3e164"
            }
          ]
        },
        "subject": {
          "reference": "urn:uuid:e4ba2ea1-712d-42b6-b8f9-175a06711d0d"
        },
        "encounter": {
          "reference": "urn:uuid:f74f292d-a184-4721-a402-7092476456d1"
        },
        "onsetDateTime": "2025-03-10",
        "abatementDateTime": "2025-03-25"
      },
      "request": {
        "method": "POST",
        "url": "Condition"
      }
    },
    {
      "fullUrl": "urn:uuid:9fcdbd30-1d02-4220-8255-dec8ab992ac8",
      "resource": {
        "resourceType": "Condition",
        "clinicalStatus": {
          "coding": [
            {
              "system": "http://terminology.hl7.org/CodeSystem/condition-clinical",
              "code": "active"
            }
          ]
        },
        "code": {
          "coding": [
            {
              "system": "http://snomed.info/sct",
              "code": "73211009",
              "display": "DiabetesI-50a3e164"
            }
          ]
        },
        "subject": {
          "reference": "urn:uuid:8f4e6a97-dfe6-4204-b706-ee1591213292"
        },
        "onsetDateTime": "2010-05-01"
      },
      "request": {
        "method": "POST",
        "url": "Condition"
      }
    },
    {
      "fullUrl": "urn:uuid:1d3b2270-5e0e-4bf5-b4f2-a9b787b5ce3c",
      "resource": {
        "resourceType": "Condition",
        "clinicalStatus": {
          "coding": [
            {
              "system": "http://terminology.hl7.org/CodeSystem/condition-clinical",
              "code": "active"
            }
          ]
        },
        "code": {
          "coding": [
            {
              "system": "http://snomed.info/sct",
              "code": "195967001",
              "display": "Asthma-50a3e164"
            }
          ]
        },
        "subject": {
          "reference": "urn:uuid:f3c20e43-f0be-4111-abe1-c08419017bab"
        },
        "encounter": {
          "reference": "urn:uuid:1419552a-951e-4672-9348-5bce87f1f28e"
        },
        "onsetDateTime": "2015-08-20"
      },
      "request": {
        "method": "POST",
        "url": "Condition"
      }
    },
    {
      "fullUrl": "urn:uuid:2c9022c5-7333-45a1-9864-2a468485f897",
      "resource": {
        "resourceType": "Observation",
        "status": "final",
        "code": {
          "coding": [
            {
              "system": "http://loinc.org",
              "code": "29463-7",
              "display": "BodyWeight-50a3e164"
            }
          ]
        },
        "subject": {
          "reference": "urn:uuid:1e4ac5a6-c3b4-459c-ae1c-d446f3e87221"
        },
        "encounter": {
          "reference": "urn:uuid:f570b32a-94d6-40fd-9520-7f6726671312"
        },
        "valueQuantity": {
          "value": 75.5,
          "unit": "kg",
          "system": "http://unitsofmeasure.org",
          "code": "kg"
        },
        "effectiveDateTime": "2025-01-10T08:30:00Z",
        "category": [
          {
            "coding": [
              {
                "system": "http://terminology.hl7.org/CodeSystem/observation-category",
                "code": "vital-signs"
              }
            ]
          }
        ]
      },
      "request": {
        "method": "POST",
        "url": "Observation"
      }
    },
    {
      "fullUrl": "urn:uuid:ab1e14da-aaad-4f0a-bfcb-031a7878a118",
      "resource": {
        "resourceType": "Observation",
        "status": "final",
        "code": {
          "coding": [
            {
              "system": "http://loinc.org",
              "code": "8867-4",
              "display": "HeartRate-50a3e164"
            }
          ]
        },
        "subject": {
          "reference": "urn:uuid:1e4ac5a6-c3b4-459c-ae1c-d446f3e87221"
        },
        "encounter": {
          "reference": "urn:uuid:f570b32a-94d6-40fd-9520-7f6726671312"
        },
        "valueQuantity": {
          "value": 72,
          "unit": "/min",
          "system": "http://unitsofmeasure.org",
          "code": "/min"
        },
        "effectiveDateTime": "2025-01-10T08:30:00Z"
      },
      "request": {
        "method": "POST",
        "url": "Observation"
      }
    },
    {
      "fullUrl": "urn:uuid:499d5023-43db-424b-ba5b-42810cd3ebe6",
      "resource": {
        "resourceType": "Observation",
        "status": "final",
        "code": {
          "coding": [
            {
              "system": "http://loinc.org",
              "code": "85354-9",
              "display": "BP-50a3e164"
            }
          ]
        },
        "subject": {
          "reference": "urn:uuid:1e4ac5a6-c3b4-459c-ae1c-d446f3e87221"
        },
        "encounter": {
          "reference": "urn:uuid:53b3680c-ba2d-4761-8cd6-17327c5b0bd8"
        },
        "component": [
          {
            "code": {
              "coding": [
                {
                  "system": "http://loinc.org",
                  "code": "8480-6"
                }
              ]
            },
            "valueQuantity": {
              "value": 120,
              "unit": "mmHg"
            }
          },
          {
            "code": {
              "coding": [
                {
                  "system": "http://loinc.org",
                  "code": "8462-4"
                }
              ]
            },
            "valueQuantity": {
              "value": 80,
              "unit": "mmHg"
            }
          }
        ],
        "effectiveDateTime": "2025-02-01T10:30:00Z"
      },
      "request": {
        "method": "POST",
        "url": "Observation"
      }
    },
    {
      "fullUrl": "urn:uuid:a8f38998-540c-4bfe-988f-c8ee4e525865",
      "resource": {
        "resourceType": "Observation",
        "status": "final",
        "code": {
          "coding": [
            {
              "system": "http://loinc.org",
              "code": "2339-0",
              "display": "Glucose-50a3e164"
            }
          ]
        },
        "subject": {
          "reference": "urn:uuid:e4ba2ea1-712d-42b6-b8f9-175a06711d0d"
        },
        "encounter": {
          "reference": "urn:uuid:f74f292d-a184-4721-a402-7092476456d1"
        },
        "valueQuantity": {
          "value": 95,
          "unit": "mg/dL"
        },
        "effectiveDateTime": "2025-03-15T14:30:00Z",
        "interpretation": [
          {
            "coding": [
              {
                "system": "http://terminology.hl7.org/CodeSystem/v3-ObservationInterpretation",
                "code": "N",
                "display": "Normal"
              }
            ]
          }
        ]
      },
      "request": {
        "method": "POST",
        "url": "Observation"
      }
    },
    {
      "fullUrl": "urn:uuid:1c7671e0-79aa-4248-afa2-afe5e4df40e1",
      "resource": {
        "resourceType": "Observation",
        "status": "final",
        "code": {
          "coding": [
            {
              "system": "http://loinc.org",
              "code": "718-7",
              "display": "Hemoglobin-50a3e164"
            }
          ]
        },
        "subject": {
          "reference": "urn:uuid:8f4e6a97-dfe6-4204-b706-ee1591213292"
        },
        "valueQuantity": {
          "value": 14.2,
          "unit": "g/dL"
        },
        "effectiveDateTime": "2025-04-01"
      },
      "request": {
        "method": "POST",
        "url": "Observation"
      }
    },
    {
      "fullUrl": "urn:uuid:148dbc2a-39bc-4b6d-acc4-42340f251b2c",
      "resource": {
        "resourceType": "Observation",
        "status": "preliminary",
        "code": {
          "coding": [
            {
              "system": "http://loinc.org",
              "code": "6690-2",
              "display": "WBC-50a3e164"
            }
          ]
        },
        "subject": {
          "reference": "urn:uuid:8f4e6a97-dfe6-4204-b706-ee1591213292"
        },
        "encounter": {
          "reference": "urn:uuid:4c8e1da7-ccc0-46cc-ac68-ceebd4d2579d"
        },
        "valueQuantity": {
          "value": 8500,
          "unit": "/uL"
        },
        "effectiveDateTime": "2026-02-25T10:30:00Z"
      },
      "request": {
        "method": "POST",
        "url": "Observation"
      }
    },
    {
      "fullUrl": "urn:uuid:0e9d20a5-48a2-4ffb-a37d-6714e8bcf645",
      "resource": {
        "resourceType": "Observation",
        "status": "final",
        "code": {
          "coding": [
            {
              "system": "http://loinc.org",
              "code": "39156-5",
              "display": "BMI-50a3e164"
            }
          ]
        },
        "subject": {
          "reference": "urn:uuid:f3c20e43-f0be-4111-abe1-c08419017bab"
        },
        "encounter": {
          "reference": "urn:uuid:1419552a-951e-4672-9348-5bce87f1f28e"
        },
        "valueQuantity": {
          "value": 22.1,
          "unit": "kg/m2"
        },
        "effectiveDateTime": "2025-06-01T11:30:00Z"
      },
      "request": {
        "method": "POST",
        "url": "Observation"
      }
    },
    {
      "fullUrl": "urn:uuid:381e9d2c-6427-4578-90d5-b4bc9aa732cb",
      "resource": {
        "resourceType": "Observation",
        "status": "final",
        "code": {
          "coding": [
            {
              "system": "http://loinc.org",
              "code": "8310-5",
              "display": "BodyTemp-50a3e164"
            }
          ]
        },
        "subject": {
          "reference": "urn:uuid:f3c20e43-f0be-4111-abe1-c08419017bab"
        },
        "valueQuantity": {
          "value": 37.2,
          "unit": "Cel"
        },
        "effectiveDateTime": "2025-06-01T11:35:00Z"
      },
      "request": {
        "method": "POST",
        "url": "Observation"
      }
    },
    {
      "fullUrl": "urn:uuid:1cb72bd0-b4b4-4183-9841-7c172ae1292c",
      "resource": {
        "resourceType": "DiagnosticReport",
        "status": "final",
        "code": {
          "coding": [
            {
              "system": "http://loinc.org",
              "code": "58410-2",
              "display": "CBC-50a3e164"
            }
          ]
        },
        "subject": {
          "reference": "urn:uuid:1e4ac5a6-c3b4-459c-ae1c-d446f3e87221"
        },
        "encounter": {
          "reference": "urn:uuid:f570b32a-94d6-40fd-9520-7f6726671312"
        },
        "result": [
          {
            "reference": "urn:uuid:2c9022c5-7333-45a1-9864-2a468485f897"
          },
          {
            "reference": "urn:uuid:ab1e14da-aaad-4f0a-bfcb-031a7878a118"
          }
        ],
        "effectiveDateTime": "2025-01-10T09:00:00Z",
        "issued": "2025-01-10T10:00:00Z"
      },
      "request": {
        "method": "POST",
        "url": "DiagnosticReport"
      }
    },
    {
      "fullUrl": "urn:uuid:61e59353-1c05-4e3d-bd06-758a7d4852b2",
      "resource": {
        "resourceType": "DiagnosticReport",
        "status": "final",
        "code": {
          "coding": [
            {
              "system": "http://loinc.org",
              "code": "24323-8",
              "display": "CMP-50a3e164"
            }
          ]
        },
        "subject": {
          "reference": "urn:uuid:1e4ac5a6-c3b4-459c-ae1c-d446f3e87221"
        },
        "encounter": {
          "reference": "urn:uuid:53b3680c-ba2d-4761-8cd6-17327c5b0bd8"
        },
        "result": [
          {
            "reference": "urn:uuid:499d5023-43db-424b-ba5b-42810cd3ebe6"
          }
        ],
        "effectiveDateTime": "2025-02-01T11:00:00Z"
      },
      "request": {
        "method": "POST",
        "url": "DiagnosticReport"
      }
    },
    {
      "fullUrl": "urn:uuid:fd289bf4-9ed3-4ba7-966c-c1f7848e8b63",
      "resource": {
        "resourceType": "DiagnosticReport",
        "status": "final",
        "code": {
          "coding": [
            {
              "system": "http://loinc.org",
              "code": "2339-0",
              "display": "GlucoseReport-50a3e164"
            }
          ]
        },
        "subject": {
          "reference": "urn:uuid:e4ba2ea1-712d-42b6-b8f9-175a06711d0d"
        },
        "result": [
          {
            "reference": "urn:uuid:a8f38998-540c-4bfe-988f-c8ee4e525865"
          }
        ],
        "effectiveDateTime": "2025-03-15T15:00:00Z"
      },
      "request": {
        "method": "POST",
        "url": "DiagnosticReport"
      }
    },
    {
      "fullUrl": "urn:uuid:aa185c4d-d498-4b66-b2b5-04209d8f5028",
      "resource": {
        "resourceType": "DiagnosticReport",
        "status": "preliminary",
        "code": {
          "coding": [
            {
              "system": "http://loinc.org",
              "code": "58410-2",
              "display": "CBC2-50a3e164"
            }
          ]
        },
        "subject": {
          "reference": "urn:uuid:8f4e6a97-dfe6-4204-b706-ee1591213292"
        },
        "result": [
          {
            "reference": "urn:uuid:1c7671e0-79aa-4248-afa2-afe5e4df40e1"
          },
          {
            "reference": "urn:uuid:148dbc2a-39bc-4b6d-acc4-42340f251b2c"
          }
        ],
        "effectiveDateTime": "2026-02-25T11:00:00Z"
      },
      "request": {
        "method": "POST",
        "url": "DiagnosticReport"
      }
    },
    {
      "fullUrl": "urn:uuid:e34c8365-4eaf-4fd2-b7b7-b4c18af1e379",
      "resource": {
        "resourceType": "DiagnosticReport",
        "status": "final",
        "code": {
          "coding": [
            {
              "system": "http://loinc.org",
              "code": "55399-0",
              "display": "Vitals-50a3e164"
            }
          ]
        },
        "subject": {
          "reference": "urn:uuid:f3c20e43-f0be-4111-abe1-c08419017bab"
        },
        "encounter": {
          "reference": "urn:uuid:1419552a-951e-4672-9348-5bce87f1f28e"
        },
        "result": [
          {
            "reference": "urn:uuid:0e9d20a5-48a2-4ffb-a37d-6714e8bcf645"
          },
          {
            "reference": "urn:uuid:381e9d2c-6427-4578-90d5-b4bc9aa732cb"
          }
        ],
        "effectiveDateTime": "2025-06-01T12:00:00Z"
      },
      "request": {
        "method": "POST",
        "url": "DiagnosticReport"
      }
    },
    {
      "fullUrl": "urn:uuid:744ac185-5913-4f7d-bd9b-b434dac488d2",
      "resource": {
        "resourceType": "MedicationRequest",
        "status": "active",
        "intent": "order",
        "medicationReference": {
          "reference": "urn:uuid:0919e4dc-de7b-4810-800b-2ea46409fcb1"
        },
        "subject": {
          "reference": "urn:uuid:1e4ac5a6-c3b4-459c-ae1c-d446f3e87221"
        },
        "encounter": {
          "reference": "urn:uuid:f570b32a-94d6-40fd-9520-7f6726671312"
        },
        "requester": {
          "reference": "urn:uuid:43c04270-6a62-40ca-8969-bdac6e30d89d"
        },
        "authoredOn": "2025-01-10",
        "dosageInstruction": [
          {
            "text": "Take 500mg PRN-50a3e164",
            "timing": {
              "repeat": {
                "frequency": 3,
                "period": 1,
                "periodUnit": "d"
              }
            }
          }
        ]
      },
      "request": {
        "method": "POST",
        "url": "MedicationRequest"
      }
    },
    {
      "fullUrl": "urn:uuid:18b65342-0cb7-4aed-b766-41ed9dabd397",
      "resource": {
        "resourceType": "MedicationRequest",
        "status": "active",
        "intent": "order",
        "medicationReference": {
          "reference": "urn:uuid:668232da-2ff6-4a6e-bc60-aa8609abdcbd"
        },
        "subject": {
          "reference": "urn:uuid:1e4ac5a6-c3b4-459c-ae1c-d446f3e87221"
        },
        "requester": {
          "reference": "urn:uuid:43c04270-6a62-40ca-8969-bdac6e30d89d"
        },
        "authoredOn": "2025-02-01",
        "dosageInstruction": [
          {
            "text": "250mg TID-50a3e164"
          }
        ]
      },
      "request": {
        "method": "POST",
        "url": "MedicationRequest"
      }
    },
    {
      "fullUrl": "urn:uuid:cb95719f-3797-475c-8ce1-c93902a7193f",
      "resource": {
        "resourceType": "MedicationRequest",
        "status": "active",
        "intent": "order",
        "medicationReference": {
          "reference": "urn:uuid:d54ea009-d17c-42c1-b762-fd22d7607451"
        },
        "subject": {
          "reference": "urn:uuid:e4ba2ea1-712d-42b6-b8f9-175a06711d0d"
        },
        "requester": {
          "reference": "urn:uuid:61f0d71e-4aca-4e58-8c2b-f3e25cc1d8b3"
        },
        "authoredOn": "2025-03-15"
      },
      "request": {
        "method": "POST",
        "url": "MedicationRequest"
      }
    },
    {
      "fullUrl": "urn:uuid:3adc662d-b238-4ef3-9a92-22a3fba72655",
      "resource": {
        "resourceType": "MedicationRequest",
        "status": "stopped",
        "intent": "order",
        "medicationReference": {
          "reference": "urn:uuid:a2aae51b-fa27-47f7-b643-90629fc3e0b9"
        },
        "subject": {
          "reference": "urn:uuid:8f4e6a97-dfe6-4204-b706-ee1591213292"
        },
        "requester": {
          "reference": "urn:uuid:10e7fa8e-366e-410a-aa3a-21d5670d2141"
        },
        "authoredOn": "2025-04-01"
      },
      "request": {
        "method": "POST",
        "url": "MedicationRequest"
      }
    },
    {
      "fullUrl": "urn:uuid:23143bf0-6270-4361-b185-de5264391809",
      "resource": {
        "resourceType": "MedicationRequest",
        "status": "active",
        "intent": "plan",
        "medicationReference": {
          "reference": "urn:uuid:823fca2d-1372-4c36-a1bf-f70d151b715b"
        },
        "subject": {
          "reference": "urn:uuid:f3c20e43-f0be-4111-abe1-c08419017bab"
        },
        "encounter": {
          "reference": "urn:uuid:1419552a-951e-4672-9348-5bce87f1f28e"
        },
        "requester": {
          "reference": "urn:uuid:5d8629d1-b76a-4688-9082-e233eda6b440"
        },
        "authoredOn": "2025-06-01"
      },
      "request": {
        "method": "POST",
        "url": "MedicationRequest"
      }
    },
    {
      "fullUrl": "urn:uuid:0919e4dc-de7b-4810-800b-2ea46409fcb1",
      "resource": {
        "resourceType": "Medication",
        "code": {
          "coding": [
            {
              "system": "http://www.nlm.nih.gov/research/umls/rxnorm",
              "code": "1049502",
              "display": "Acetaminophen-50a3e164"
            }
          ]
        },
        "status": "active"
      },
      "request": {
        "method": "POST",
        "url": "Medication"
      }
    },
    {
      "fullUrl": "urn:uuid:668232da-2ff6-4a6e-bc60-aa8609abdcbd",
      "resource": {
        "resourceType": "Medication",
        "code": {
          "coding": [
            {
              "system": "http://www.nlm.nih.gov/research/umls/rxnorm",
              "code": "197361",
              "display": "Amoxicillin-50a3e164"
            }
          ]
        },
        "status": "active",
        "manufacturer": {
          "reference": "urn:uuid:78883f60-cc37-453b-9028-32843276b3f0"
        }
      },
      "request": {
        "method": "POST",
        "url": "Medication"
      }
    },
    {
      "fullUrl": "urn:uuid:d54ea009-d17c-42c1-b762-fd22d7607451",
      "resource": {
        "resourceType": "Medication",
        "code": {
          "coding": [
            {
              "system": "http://www.nlm.nih.gov/research/umls/rxnorm",
              "code": "310965",
              "display": "Lisinopril-50a3e164"
            }
          ]
        },
        "status": "active"
      },
      "request": {
        "method": "POST",
        "url": "Medication"
      }
    },
    {
      "fullUrl": "urn:uuid:a2aae51b-fa27-47f7-b643-90629fc3e0b9",
      "resource": {
        "resourceType": "Medication",
        "code": {
          "coding": [
            {
              "system": "http://www.nlm.nih.gov/research/umls/rxnorm",
              "code": "860975",
              "display": "Metformin-50a3e164"
            }
          ]
        },
        "status": "active"
      },
      "request": {
        "method": "POST",
        "url": "Medication"
      }
    },
    {
      "fullUrl": "urn:uuid:823fca2d-1372-4c36-a1bf-f70d151b715b",
      "resource": {
        "resourceType": "Medication",
        "code": {
          "coding": [
            {
              "system": "http://www.nlm.nih.gov/research/umls/rxnorm",
              "code": "198440",
              "display": "Omeprazole-50a3e164"
            }
          ]
        },
        "status": "inactive"
      },
      "request": {
        "method": "POST",
        "url": "Medication"
      }
    },
    {
      "fullUrl": "urn:uuid:32b1a9b4-200f-47ce-bf1c-eb6bed039e2e",
      "resource": {
        "resourceType": "AllergyIntolerance",
        "clinicalStatus": {
          "coding": [
            {
              "system": "http://terminology.hl7.org/CodeSystem/allergyintolerance-clinical",
              "code": "active"
            }
          ]
        },
        "verificationStatus": {
          "coding": [
            {
              "system": "http://terminology.hl7.org/CodeSystem/allergyintolerance-verification",
              "code": "confirmed"
            }
          ]
        },
        "type": "allergy",
        "category": [
          "medication"
        ],
        "code": {
          "coding": [
            {
              "system": "http://snomed.info/sct",
              "code": "387458008",
              "display": "Aspirin-50a3e164"
            }
          ]
        },
        "patient": {
          "reference": "urn:uuid:1e4ac5a6-c3b4-459c-ae1c-d446f3e87221"
        },
        "onsetDateTime": "2015-01-01",
        "reaction": [
          {
            "manifestation": [
              {
                "coding": [
                  {
                    "system": "http://snomed.info/sct",
                    "code": "271807003",
                    "display": "Rash"
                  }
                ]
              }
            ],
            "severity": "moderate"
          }
        ]
      },
      "request": {
        "method": "POST",
        "url": "AllergyIntolerance"
      }
    },
    {
      "fullUrl": "urn:uuid:4b4b813d-7443-4edf-b61b-3f0eb0a6f011",
      "resource": {
        "resourceType": "AllergyIntolerance",
        "clinicalStatus": {
          "coding": [
            {
              "system": "http://terminology.hl7.org/CodeSystem/allergyintolerance-clinical",
              "code": "active"
            }
          ]
        },
        "type": "allergy",
        "category": [
          "food"
        ],
        "code": {
          "coding": [
            {
              "system": "http://snomed.info/sct",
              "code": "91935009",
              "display": "Peanut-50a3e164"
            }
          ]
        },
        "patient": {
          "reference": "urn:uuid:1e4ac5a6-c3b4-459c-ae1c-d446f3e87221"
        }
      },
      "request": {
        "method": "POST",
        "url": "AllergyIntolerance"
      }
    },
    {
      "fullUrl": "urn:uuid:6ff6854b-e88a-4683-830c-82ac3fb45d64",
      "resource": {
        "resourceType": "AllergyIntolerance",
        "clinicalStatus": {
          "coding": [
            {
              "system": "http://terminology.hl7.org/CodeSystem/allergyintolerance-clinical",
              "code": "active"
            }
          ]
        },
        "type": "intolerance",
        "category": [
          "medication"
        ],
        "code": {
          "coding": [
            {
              "system": "http://snomed.info/sct",
              "code": "372687004",
              "display": "Penicillin-50a3e164"
            }
          ]
        },
        "patient": {
          "reference": "urn:uuid:e4ba2ea1-712d-42b6-b8f9-175a06711d0d"
        }
      },
      "request": {
        "method": "POST",
        "url": "AllergyIntolerance"
      }
    },
    {
      "fullUrl": "urn:uuid:b6e600fa-817f-4047-b79a-fc5f10db93da",
      "resource": {
        "resourceType": "AllergyIntolerance",
        "clinicalStatus": {
          "coding": [
            {
              "system": "http://terminology.hl7.org/CodeSystem/allergyintolerance-clinical",
              "code": "resolved"
            }
          ]
        },
        "code": {
          "coding": [
            {
              "system": "http://snomed.info/sct",
              "code": "264295007",
              "display": "Latex-50a3e164"
            }
          ]
        },
        "patient": {
          "reference": "urn:uuid:8f4e6a97-dfe6-4204-b706-ee1591213292"
        }
      },
      "request": {
        "method": "POST",
        "url": "AllergyIntolerance"
      }
    },
    {
      "fullUrl": "urn:uuid:056d6233-457b-4864-8f05-e3e97545078f",
      "resource": {
        "resourceType": "AllergyIntolerance",
        "clinicalStatus": {
          "coding": [
            {
              "system": "http://terminology.hl7.org/CodeSystem/allergyintolerance-clinical",
              "code": "active"
            }
          ]
        },
        "type": "allergy",
        "category": [
          "environment"
        ],
        "code": {
          "coding": [
            {
              "system": "http://snomed.info/sct",
              "code": "256259004",
              "display": "Pollen-50a3e164"
            }
          ]
        },
        "patient": {
          "reference": "urn:uuid:f3c20e43-f0be-4111-abe1-c08419017bab"
        }
      },
      "request": {
        "method": "POST",
        "url": "AllergyIntolerance"
      }
    },
    {
      "fullUrl": "urn:uuid:f5bfa2e6-d6c6-425a-94bd-b77b40e798aa",
      "resource": {
        "resourceType": "Procedure",
        "status": "completed",
        "code": {
          "coding": [
            {
              "system": "http://snomed.info/sct",
              "code": "80146002",
              "display": "Appendectomy-50a3e164"
            }
          ]
        },
        "subject": {
          "reference": "urn:uuid:1e4ac5a6-c3b4-459c-ae1c-d446f3e87221"
        },
        "encounter": {
          "reference": "urn:uuid:53b3680c-ba2d-4761-8cd6-17327c5b0bd8"
        },
        "performedDateTime": "2025-02-03T14:00:00Z",
        "performer": [
          {
            "actor": {
              "reference": "urn:uuid:10e7fa8e-366e-410a-aa3a-21d5670d2141"
            }
          }
        ]
      },
      "request": {
        "method": "POST",
        "url": "Procedure"
      }
    },
    {
      "fullUrl": "urn:uuid:7667c8b1-2ab0-42d3-8981-665295e5903c",
      "resource": {
        "resourceType": "Procedure",
        "status": "completed",
        "code": {
          "coding": [
            {
              "system": "http://snomed.info/sct",
              "code": "232717009",
              "display": "Coronography-50a3e164"
            }
          ]
        },
        "subject": {
          "reference": "urn:uuid:1e4ac5a6-c3b4-459c-ae1c-d446f3e87221"
        },
        "performedPeriod": {
          "start": "2025-02-04T08:00:00Z",
          "end": "2025-02-04T10:00:00Z"
        }
      },
      "request": {
        "method": "POST",
        "url": "Procedure"
      }
    },
    {
      "fullUrl": "urn:uuid:c1c51d5b-5c7b-47cb-9c93-ee6745119bd9",
      "resource": {
        "resourceType": "Procedure",
        "status": "completed",
        "code": {
          "coding": [
            {
              "system": "http://snomed.info/sct",
              "code": "36969009",
              "display": "BloodDraw-50a3e164"
            }
          ]
        },
        "subject": {
          "reference": "urn:uuid:e4ba2ea1-712d-42b6-b8f9-175a06711d0d"
        },
        "encounter": {
          "reference": "urn:uuid:f74f292d-a184-4721-a402-7092476456d1"
        },
        "performedDateTime": "2025-03-15T14:15:00Z"
      },
      "request": {
        "method": "POST",
        "url": "Procedure"
      }
    },
    {
      "fullUrl": "urn:uuid:89800af3-59a5-47a6-a61a-b94f134a4168",
      "resource": {
        "resourceType": "Procedure",
        "status": "in-progress",
        "code": {
          "coding": [
            {
              "system": "http://snomed.info/sct",
              "code": "418891003",
              "display": "Dressing-50a3e164"
            }
          ]
        },
        "subject": {
          "reference": "urn:uuid:8f4e6a97-dfe6-4204-b706-ee1591213292"
        },
        "encounter": {
          "reference": "urn:uuid:4c8e1da7-ccc0-46cc-ac68-ceebd4d2579d"
        },
        "performedDateTime": "2026-02-25T11:00:00Z"
      },
      "request": {
        "method": "POST",
        "url": "Procedure"
      }
    },
    {
      "fullUrl": "urn:uuid:545f09c5-cbbc-4565-b6b8-cb1fe6750ebe",
      "resource": {
        "resourceType": "Procedure",
        "status": "completed",
        "code": {
          "coding": [
            {
              "system": "http://snomed.info/sct",
              "code": "274025005",
              "display": "EKG-50a3e164"
            }
          ]
        },
        "subject": {
          "reference": "urn:uuid:f3c20e43-f0be-4111-abe1-c08419017bab"
        },
        "encounter": {
          "reference": "urn:uuid:1419552a-951e-4672-9348-5bce87f1f28e"
        },
        "performedDateTime": "2025-06-01T11:45:00Z"
      },
      "request": {
        "method": "POST",
        "url": "Procedure"
      }
    },
    {
      "fullUrl": "urn:uuid:5bac9527-7adb-4643-9f2b-09e32c03e21b",
      "resource": {
        "resourceType": "ServiceRequest",
        "status": "active",
        "intent": "order",
        "code": {
          "coding": [
            {
              "system": "http://snomed.info/sct",
              "code": "26604007",
              "display": "FBC-50a3e164"
            }
          ]
        },
        "subject": {
          "reference": "urn:uuid:1e4ac5a6-c3b4-459c-ae1c-d446f3e87221"
        },
        "encounter": {
          "reference": "urn:uuid:f570b32a-94d6-40fd-9520-7f6726671312"
        },
        "requester": {
          "reference": "urn:uuid:43c04270-6a62-40ca-8969-bdac6e30d89d"
        },
        "authoredOn": "2025-01-10"
      },
      "request": {
        "method": "POST",
        "url": "ServiceRequest"
      }
    },
    {
      "fullUrl": "urn:uuid:dca243d9-8584-4192-8a59-4d171fb4ab03",
      "resource": {
        "resourceType": "ServiceRequest",
        "status": "completed",
        "intent": "order",
        "code": {
          "coding": [
            {
              "system": "http://snomed.info/sct",
              "code": "77477000",
              "display": "CTScan-50a3e164"
            }
          ]
        },
        "subject": {
          "reference": "urn:uuid:1e4ac5a6-c3b4-459c-ae1c-d446f3e87221"
        },
        "encounter": {
          "reference": "urn:uuid:53b3680c-ba2d-4761-8cd6-17327c5b0bd8"
        },
        "authoredOn": "2025-02-01"
      },
      "request": {
        "method": "POST",
        "url": "ServiceRequest"
      }
    },
    {
      "fullUrl": "urn:uuid:2f7cbe3d-4b6e-4821-870b-490f870a886c",
      "resource": {
        "resourceType": "ServiceRequest",
        "status": "active",
        "intent": "order",
        "code": {
          "coding": [
            {
              "system": "http://snomed.info/sct",
              "code": "104001",
              "display": "Excision-50a3e164"
            }
          ]
        },
        "subject": {
          "reference": "urn:uuid:e4ba2ea1-712d-42b6-b8f9-175a06711d0d"
        },
        "authoredOn": "2025-03-15"
      },
      "request": {
        "method": "POST",
        "url": "ServiceRequest"
      }
    },
    {
      "fullUrl": "urn:uuid:2fd4680b-1885-40d7-8c95-86d354ef33e0",
      "resource": {
        "resourceType": "ServiceRequest",
        "status": "active",
        "intent": "order",
        "code": {
          "coding": [
            {
              "system": "http://snomed.info/sct",
              "code": "252275004",
              "display": "Imaging-50a3e164"
            }
          ]
        },
        "subject": {
          "reference": "urn:uuid:8f4e6a97-dfe6-4204-b706-ee1591213292"
        },
        "encounter": {
          "reference": "urn:uuid:4c8e1da7-ccc0-46cc-ac68-ceebd4d2579d"
        },
        "authoredOn": "2026-02-25"
      },
      "request": {
        "method": "POST",
        "url": "ServiceRequest"
      }
    },
    {
      "fullUrl": "urn:uuid:e57b3c9a-9165-4942-9687-8a1c3b95d9a6",
      "resource": {
        "resourceType": "ServiceRequest",
        "status": "active",
        "intent": "plan",
        "code": {
          "coding": [
            {
              "system": "http://snomed.info/sct",
              "code": "409063005",
              "display": "Counseling-50a3e164"
            }
          ]
        },
        "subject": {
          "reference": "urn:uuid:f3c20e43-f0be-4111-abe1-c08419017bab"
        },
        "authoredOn": "2025-06-01"
      },
      "request": {
        "method": "POST",
        "url": "ServiceRequest"
      }
    },
    {
      "fullUrl": "urn:uuid:2ffa170f-9384-45c0-b3a6-ddc720e3bc9b",
      "resource": {
        "resourceType": "CarePlan",
        "status": "active",
        "intent": "plan",
        "title": "DM Management-50a3e164",
        "subject": {
          "reference": "urn:uuid:1e4ac5a6-c3b4-459c-ae1c-d446f3e87221"
        },
        "encounter": {
          "reference": "urn:uuid:f570b32a-94d6-40fd-9520-7f6726671312"
        },
        "addresses": [
          {
            "reference": "urn:uuid:8a2cc771-c814-4e64-b58e-68d0942c8419"
          }
        ],
        "category": [
          {
            "coding": [
              {
                "system": "http://hl7.org/fhir/us/core/CodeSystem/careplan-category",
                "code": "assess-plan"
              }
            ]
          }
        ]
      },
      "request": {
        "method": "POST",
        "url": "CarePlan"
      }
    },
    {
      "fullUrl": "urn:uuid:9066fba7-c6a6-4cd8-b317-a183031aba8b",
      "resource": {
        "resourceType": "CarePlan",
        "status": "active",
        "intent": "plan",
        "title": "HTN Management-50a3e164",
        "subject": {
          "reference": "urn:uuid:1e4ac5a6-c3b4-459c-ae1c-d446f3e87221"
        },
        "addresses": [
          {
            "reference": "urn:uuid:e6d1e23d-9012-4552-92dd-0e7de06bb260"
          }
        ]
      },
      "request": {
        "method": "POST",
        "url": "CarePlan"
      }
    },
    {
      "fullUrl": "urn:uuid:012f7e79-8e6b-447e-b783-e415b599eed1",
      "resource": {
        "resourceType": "CarePlan",
        "status": "completed",
        "intent": "plan",
        "title": "Pneumonia Recovery-50a3e164",
        "subject": {
          "reference": "urn:uuid:e4ba2ea1-712d-42b6-b8f9-175a06711d0d"
        },
        "addresses": [
          {
            "reference": "urn:uuid:b38bbdd6-9e80-4b03-9d72-14a3d457c97e"
          }
        ]
      },
      "request": {
        "method": "POST",
        "url": "CarePlan"
      }
    },
    {
      "fullUrl": "urn:uuid:772a644f-d777-44ea-9dbe-c0df5669998b",
      "resource": {
        "resourceType": "CarePlan",
        "status": "active",
        "intent": "plan",
        "title": "DM1 Care-50a3e164",
        "subject": {
          "reference": "urn:uuid:8f4e6a97-dfe6-4204-b706-ee1591213292"
        },
        "addresses": [
          {
            "reference": "urn:uuid:9fcdbd30-1d02-4220-8255-dec8ab992ac8"
          }
        ]
      },
      "request": {
        "method": "POST",
        "url": "CarePlan"
      }
    },
    {
      "fullUrl": "urn:uuid:7c2aa235-fad1-42d6-b0ab-f7737ee9f7c0",
      "resource": {
        "resourceType": "CarePlan",
        "status": "active",
        "intent": "plan",
        "title": "Asthma Action-50a3e164",
        "subject": {
          "reference": "urn:uuid:f3c20e43-f0be-4111-abe1-c08419017bab"
        },
        "encounter": {
          "reference": "urn:uuid:1419552a-951e-4672-9348-5bce87f1f28e"
        },
        "addresses": [
          {
            "reference": "urn:uuid:1d3b2270-5e0e-4bf5-b4f2-a9b787b5ce3c"
          }
        ]
      },
      "request": {
        "method": "POST",
        "url": "CarePlan"
      }
    },
    {
      "fullUrl": "urn:uuid:c028d344-5dc5-4bef-ae52-0334eb621cc5",
      "resource": {
        "resourceType": "Immunization",
        "status": "completed",
        "vaccineCode": {
          "coding": [
            {
              "system": "http://hl7.org/fhir/sid/cvx",
              "code": "208",
              "display": "COVID19-50a3e164"
            }
          ]
        },
        "patient": {
          "reference": "urn:uuid:1e4ac5a6-c3b4-459c-ae1c-d446f3e87221"
        },
        "occurrenceDateTime": "2025-01-15T09:00:00Z",
        "encounter": {
          "reference": "urn:uuid:f570b32a-94d6-40fd-9520-7f6726671312"
        }
      },
      "request": {
        "method": "POST",
        "url": "Immunization"
      }
    },
    {
      "fullUrl": "urn:uuid:823e03f9-8547-41a1-a2fe-8df7e83fa23a",
      "resource": {
        "resourceType": "Immunization",
        "status": "completed",
        "vaccineCode": {
          "coding": [
            {
              "system": "http://hl7.org/fhir/sid/cvx",
              "code": "141",
              "display": "Influenza-50a3e164"
            }
          ]
        },
        "patient": {
          "reference": "urn:uuid:1e4ac5a6-c3b4-459c-ae1c-d446f3e87221"
        },
        "occurrenceDateTime": "2025-10-01"
      },
      "request": {
        "method": "POST",
        "url": "Immunization"
      }
    },
    {
      "fullUrl": "urn:uuid:d5f8c721-f9de-41bc-ab00-2554ae6a055a",
      "resource": {
        "resourceType": "Immunization",
        "status": "completed",
        "vaccineCode": {
          "coding": [
            {
              "system": "http://hl7.org/fhir/sid/cvx",
              "code": "08",
              "display": "HepB-50a3e164"
            }
          ]
        },
        "patient": {
          "reference": "urn:uuid:e4ba2ea1-712d-42b6-b8f9-175a06711d0d"
        },
        "occurrenceDateTime": "2025-04-01"
      },
      "request": {
        "method": "POST",
        "url": "Immunization"
      }
    },
    {
      "fullUrl": "urn:uuid:461d3f7c-9fe5-46c7-a25b-37108a26d51a",
      "resource": {
        "resourceType": "Immunization",
        "status": "not-done",
        "vaccineCode": {
          "coding": [
            {
              "system": "http://hl7.org/fhir/sid/cvx",
              "code": "03",
              "display": "MMR-50a3e164"
            }
          ]
        },
        "patient": {
          "reference": "urn:uuid:61fb9cab-16d5-41bc-9ebb-14b5a9e8742a"
        },
        "occurrenceDateTime": "2025-05-01",
        "statusReason": {
          "coding": [
            {
              "system": "http://terminology.hl7.org/CodeSystem/v3-ActReason",
              "code": "MEDPREC"
            }
          ]
        }
      },
      "request": {
        "method": "POST",
        "url": "Immunization"
      }
    },
    {
      "fullUrl": "urn:uuid:0b4f45d9-0b11-4df6-b612-041eaa9a6759",
      "resource": {
        "resourceType": "Immunization",
        "status": "completed",
        "vaccineCode": {
          "coding": [
            {
              "system": "http://hl7.org/fhir/sid/cvx",
              "code": "113",
              "display": "Tdap-50a3e164"
            }
          ]
        },
        "patient": {
          "reference": "urn:uuid:f3c20e43-f0be-4111-abe1-c08419017bab"
        },
        "occurrenceDateTime": "2025-06-01",
        "encounter": {
          "reference": "urn:uuid:1419552a-951e-4672-9348-5bce87f1f28e"
        }
      },
      "request": {
        "method": "POST",
        "url": "Immunization"
      }
    }
  ]
}