{
  "resourceType": "Bundle",
  "type": "transaction",
  "entry": [
    {
      "fullUrl": "urn:uuid:24d51cd1-b310-4838-99ce-618d7713face",
      "resource": {
        "resourceType": "Organization",
        "name": "Central Hospital-b7479c7f",
        "identifier": [
          {
            "system": "http://example.com/org",
            "value": "ORG-001-b7479c7f"
          }
        ],
        "type": [
          {
            "coding": [
              {
                "system": "http://terminology.hl7.org/CodeSystem/organization-type",
                "code": "prov"
              }
            ]
          }
        ],
        "telecom": [
          {
            "system": "phone",
            "value": "555-0100"
          }
        ],
        "address": [
          {
            "line": [
              "100 Main St"
            ],
            "city": "Springfield",
            "state": "IL",
            "postalCode": "62701",
            "country": "US"
          }
        ]
      },
      "request": {
        "method": "POST",
        "url": "Organization"
      }
    },
    {
      "fullUrl": "urn:uuid:0fee63d1-608b-4501-a618-870c28e9d92e",
      "resource": {
        "resourceType": "Organization",
        "name": "East Wing Lab-b7479c7f",
        "identifier": [
          {
            "system": "http://example.com/org",
            "value": "ORG-002-b7479c7f"
          }
        ],
        "type": [
          {
            "coding": [
              {
                "system": "http://terminology.hl7.org/CodeSystem/organization-type",
                "code": "dept"
              }
            ]
          }
        ]
      },
      "request": {
        "method": "POST",
        "url": "Organization"
      }
    },
    {
      "fullUrl": "urn:uuid:82fd12e6-bfe6-4e4d-b8ff-9ccc954eacb5",
      "resource": {
        "resourceType": "Organization",
        "name": "Pharmacy Services-b7479c7f",
        "identifier": [
          {
            "system": "http://example.com/org",
            "value": "ORG-003-b7479c7f"
          }
        ]
      },
      "request": {
        "method": "POST",
        "url": "Organization"
      }
    },
    {
      "fullUrl": "urn:uuid:08ffdd55-ccd4-4fc8-9abc-2da0d6f21ae4",
      "resource": {
        "resourceType": "Organization",
        "name": "Insurance Corp-b7479c7f",
        "identifier": [
          {
            "system": "http://example.com/org",
            "value": "ORG-004-b7479c7f"
          }
        ],
        "type": [
          {
            "coding": [
              {
                "system": "http://terminology.hl7.org/CodeSystem/organization-type",
                "code": "ins"
              }
            ]
          }
        ]
      },
      "request": {
        "method": "POST",
        "url": "Organization"
      }
    },
    {
      "fullUrl": "urn:uuid:65d72d63-05b2-400e-a9df-8e70ba5e064a",
      "resource": {
        "resourceType": "Organization",
        "name": "Specialty Clinic-b7479c7f",
        "identifier": [
          {
            "system": "http://example.com/org",
            "value": "ORG-005-b7479c7f"
          }
        ],
        "address": [
          {
            "line": [
              "200 Oak Ave"
            ],
            "city": "Shelbyville",
            "state": "IL",
            "postalCode": "62702",
            "country": "US"
          }
        ]
      },
      "request": {
        "method": "POST",
        "url": "Organization"
      }
    },
    {
      "fullUrl": "urn:uuid:d185110a-2d62-491e-88db-33dec4601ac0",
      "resource": {
        "resourceType": "Practitioner",
        "name": [
          {
            "family": "Smith-b7479c7f",
            "given": [
              "John",
              "A"
            ],
            "prefix": [
              "Dr."
            ]
          }
        ],
        "identifier": [
          {
            "system": "http://example.com/npi",
            "value": "NPI-001-b7479c7f"
          }
        ],
        "gender": "male",
        "birthDate": "1975-03-15",
        "telecom": [
          {
            "system": "email",
            "value": "john.smith-b7479c7f@hospital.com"
          }
        ],
        "address": [
          {
            "line": [
              "100 Main St"
            ],
            "city": "Springfield",
            "state": "IL",
            "postalCode": "62701",
            "country": "US"
          }
        ]
      },
      "request": {
        "method": "POST",
        "url": "Practitioner"
      }
    },
    {
      "fullUrl": "urn:uuid:16c1b615-ab1f-42fb-a8c8-73a8a9db8814",
      "resource": {
        "resourceType": "Practitioner",
        "name": [
          {
            "family": "Johnson-b7479c7f",
            "given": [
              "Emily"
            ]
          }
        ],
        "identifier": [
          {
            "system": "http://example.com/npi",
            "value": "NPI-002-b7479c7f"
          }
        ],
        "gender": "female"
      },
      "request": {
        "method": "POST",
        "url": "Practitioner"
      }
    },
    {
      "fullUrl": "urn:uuid:02aea334-6386-4d89-98e0-8531829ec712",
      "resource": {
        "resourceType": "Practitioner",
        "name": [
          {
            "family": "Williams-b7479c7f",
            "given": [
              "Robert"
            ]
          }
        ],
        "identifier": [
          {
            "system": "http://example.com/npi",
            "value": "NPI-003-b7479c7f"
          }
        ],
        "gender": "male"
      },
      "request": {
        "method": "POST",
        "url": "Practitioner"
      }
    },
    {
      "fullUrl": "urn:uuid:9d632b74-97d9-4001-af9f-a47ce08494c9",
      "resource": {
        "resourceType": "Practitioner",
        "name": [
          {
            "family": "Brown-b7479c7f",
            "given": [
              "Sarah"
            ]
          }
        ],
        "identifier": [
          {
            "system": "http://example.com/npi",
            "value": "NPI-004-b7479c7f"
          }
        ],
        "gender": "female"
      },
      "request": {
        "method": "POST",
        "url": "Practitioner"
      }
    },
    {
      "fullUrl": "urn:uuid:91c67dc4-52cf-46a5-b3fe-4694c7f169b5",
      "resource": {
        "resourceType": "Practitioner",
        "name": [
          {
            "family": "Davis-b7479c7f",
            "given": [
              "Michael",
              "J"
            ]
          }
        ],
        "identifier": [
          {
            "system": "http://example.com/npi",
            "value": "NPI-005-b7479c7f"
          }
        ],
        "gender": "male",
        "telecom": [
          {
            "system": "phone",
            "value": "555-0200"
          },
          {
            "system": "email",
            "value": "michael.davis-b7479c7f@hospital.com"
          }
        ]
      },
      "request": {
        "method": "POST",
        "url": "Practitioner"
      }
    },
    {
      "fullUrl": "urn:uuid:d61bb802-61cb-4d8e-8c54-e1f6e587c691",
      "resource": {
        "resourceType": "PractitionerRole",
        "practitioner": {
          "reference": "urn:uuid:d185110a-2d62-491e-88db-33dec4601ac0"
        },
        "organization": {
          "reference": "urn:uuid:24d51cd1-b310-4838-99ce-618d7713face"
        },
        "code": [
          {
            "coding": [
              {
                "system": "http://snomed.info/sct",
                "code": "59058001",
                "display": "GP-b7479c7f"
              }
            ]
          }
        ],
        "active": true
      },
      "request": {
        "method": "POST",
        "url": "PractitionerRole"
      }
    },
    {
      "fullUrl": "urn:uuid:8c5ad570-f58f-4af9-a02d-cc45b6279217",
      "resource": {
        "resourceType": "PractitionerRole",
        "practitioner": {
          "reference": "urn:uuid:16c1b615-ab1f-42fb-a8c8-73a8a9db8814"
        },
        "organization": {
          "reference": "urn:uuid:0fee63d1-608b-4501-a618-870c28e9d92e"
        },
        "code": [
          {
            "coding": [
              {
                "system": "http://snomed.info/sct",
                "code": "61246008",
                "display": "Lab-b7479c7f"
              }
            ]
          }
        ]
      },
      "request": {
        "method": "POST",
        "url": "PractitionerRole"
      }
    },
    {
      "fullUrl": "urn:uuid:a31a210c-4a2b-4009-99e4-4074e6076b70",
      "resource": {
        "resourceType": "PractitionerRole",
        "practitioner": {
          "reference": "urn:uuid:02aea334-6386-4d89-98e0-8531829ec712"
        },
        "organization": {
          "reference": "urn:uuid:24d51cd1-b310-4838-99ce-618d7713face"
        },
        "code": [
          {
            "coding": [
              {
                "system": "http://snomed.info/sct",
                "code": "304292004",
                "display": "Surgeon-b7479c7f"
              }
            ]
          }
        ]
      },
      "request": {
        "method": "POST",
        "url": "PractitionerRole"
      }
    },
    {
      "fullUrl": "urn:uuid:66367bce-f781-44ee-adc6-8d8114f71e7f",
      "resource": {
        "resourceType": "PractitionerRole",
        "practitioner": {
          "reference": "urn:uuid:9d632b74-97d9-4001-af9f-a47ce08494c9"
        },
        "organization": {
          "reference": "urn:uuid:82fd12e6-bfe6-4e4d-b8ff-9ccc954eacb5"
        },
        "code": [
          {
            "coding": [
              {
                "system": "http://snomed.info/sct",
                "code": "46255001",
                "display": "Pharmacist-b7479c7f"
              }
            ]
          }
        ]
      },
      "request": {
        "method": "POST",
        "url": "PractitionerRole"
      }
    },
    {
      "fullUrl": "urn:uuid:8e0b7d1f-cc22-4253-adaf-44b79303fd1b",
      "resource": {
        "resourceType": "PractitionerRole",
        "practitioner": {
          "reference": "urn:uuid:91c67dc4-52cf-46a5-b3fe-4694c7f169b5"
        },
        "organization": {
          "reference": "urn:uuid:65d72d63-05b2-400e-a9df-8e70ba5e064a"
        },
        "code": [
          {
            "coding": [
              {
                "system": "http://snomed.info/sct",
                "code": "309343006",
                "display": "Specialist-b7479c7f"
              }
            ]
          }
        ]
      },
      "request": {
        "method": "POST",
        "url": "PractitionerRole"
      }
    },
    {
      "fullUrl": "urn:uuid:cd7b4528-8db6-4756-a406-51db70bcf3ee",
      "resource": {
        "resourceType": "Patient",
        "active": true,
        "gender": "male",
        "birthDate": "1985-06-15",
        "name": [
          {
            "use": "official",
            "family": "Doe-b7479c7f",
            "given": [
              "John",
              "Michael"
            ]
          },
          {
            "use": "nickname",
            "given": [
              "Johnny"
            ]
          }
        ],
        "identifier": [
          {
            "system": "http://example.com/mrn",
            "value": "MRN-001-b7479c7f"
          },
          {
            "system": "http://example.com/ssn",
            "value": "SSN-001-b7479c7f"
          }
        ],
        "telecom": [
          {
            "system": "phone",
            "value": "555-1001",
            "use": "home"
          },
          {
            "system": "email",
            "value": "john.doe-b7479c7f@example.com",
            "use": "work"
          }
        ],
        "address": [
          {
            "use": "home",
            "line": [
              "123 Elm St",
              "Apt 4B"
            ],
            "city": "Springfield",
            "state": "IL",
            "postalCode": "62701",
            "country": "US"
          }
        ],
        "managingOrganization": {
          "reference": "urn:uuid:24d51cd1-b310-4838-99ce-618d7713face"
        },
        "generalPractitioner": [
          {
            "reference": "urn:uuid:d185110a-2d62-491e-88db-33dec4601ac0"
          }
        ],
        "meta": {
          "tag": [
            {
              "system": "http://example.com/tags",
              "code": "vip-b7479c7f"
            }
          ]
        },
        "maritalStatus": {
          "coding": [
            {
              "system": "http://terminology.hl7.org/CodeSystem/v3-MaritalStatus",
              "code": "M",
              "display": "Married"
            }
          ]
        },
        "communication": [
          {
            "language": {
              "coding": [
                {
                  "system": "urn:ietf:bcp:47",
                  "code": "en"
                }
              ]
            }
          }
        ]
      },
      "request": {
        "method": "POST",
        "url": "Patient"
      }
    },
    {
      "fullUrl": "urn:uuid:f81db143-a877-43af-9b16-ba62cd8d49d2",
      "resource": {
        "resourceType": "Patient",
        "active": true,
        "gender": "female",
        "birthDate": "1990-11-22",
        "name": [
          {
            "use": "official",
            "family": "Smith-b7479c7f",
            "given": [
              "Jane",
              "Elizabeth"
            ]
          }
        ],
        "identifier": [
          {
            "system": "http://example.com/mrn",
            "value": "MRN-002-b7479c7f"
          }
        ],
        "telecom": [
          {
            "system": "phone",
            "value": "555-1002"
          }
        ],
        "address": [
          {
            "use": "home",
            "line": [
              "456 Oak Ave"
            ],
            "city": "Chicago",
            "state": "IL",
            "postalCode": "60601",
            "country": "US"
          }
        ],
        "managingOrganization": {
          "reference": "urn:uuid:24d51cd1-b310-4838-99ce-618d7713face"
        }
      },
      "request": {
        "method": "POST",
        "url": "Patient"
      }
    },
    {
      "fullUrl": "urn:uuid:5639742a-013f-48f2-92bb-81745829b85d",
      "resource": {
        "resourceType": "Patient",
        "active": true,
        "gender": "male",
        "birthDate": "1978-01-30",
        "name": [
          {
            "use": "official",
            "family": "Williams-b7479c7f",
            "given": [
              "Robert"
            ]
          }
        ],
        "identifier": [
          {
            "system": "http://example.com/mrn",
            "value": "MRN-003-b7479c7f"
          }
        ],
        "address": [
          {
            "line": [
              "789 Pine Rd"
            ],
            "city": "Shelbyville",
            "state": "IL",
            "postalCode": "62702",
            "country": "US"
          },
          {
            "use": "work",
            "line": [
              "100 Main St"
            ],
            "city": "Springfield",
            "state": "IL"
          }
        ],
        "generalPractitioner": [
          {
            "reference": "urn:uuid:02aea334-6386-4d89-98e0-8531829ec712"
          }
        ],
        "meta": {
          "tag": [
            {
              "system": "http://example.com/tags",
              "code": "urgent-b7479c7f"
            },
            {
              "system": "http://example.com/tags",
              "code": "flagged-b7479c7f"
            }
          ],
          "security": [
            {
              "system": "http://terminology.hl7.org/CodeSystem/v3-Confidentiality",
              "code": "R"
            }
          ]
        }
      },
      "request": {
        "method": "POST",
        "url": "Patient"
      }
    },
    {
      "fullUrl": "urn:uuid:efb7a408-602b-4672-9874-99308a7d9093",
      "resource": {
        "resourceType": "Patient",
        "active": false,
        "gender": "female",
        "birthDate": "2005-08-10",
        "name": [
          {
            "use": "official",
            "family": "Davis-b7479c7f",
            "given": [
              "Alice"
            ]
          }
        ],
        "identifier": [
          {
            "system": "http://example.com/mrn",
            "value": "MRN-004-b7479c7f"
          }
        ],
        "deceasedBoolean": false
      },
      "request": {
        "method": "POST",
        "url": "Patient"
      }
    },
    {
      "fullUrl": "urn:uuid:9a89db71-7c10-47de-b873-0cf5eaa4823a",
      "resource": {
        "resourceType": "Patient",
        "active": true,
        "gender": "other",
        "birthDate": "2000-03-01",
        "name": [
          {
            "use": "official",
            "family": "Garcia-b7479c7f",
            "given": [
              "Alex",
              "M"
            ]
          }
        ],
        "identifier": [
          {
            "system": "http://example.com/mrn",
            "value": "MRN-005-b7479c7f"
          }
        ],
        "telecom": [
          {
            "system": "email",
            "value": "alex.garcia-b7479c7f@example.com"
          }
        ]
      },
      "request": {
        "method": "POST",
        "url": "Patient"
      }
    },
    {
      "fullUrl": "urn:uuid:8580e579-f27b-43cb-8baf-a5037958165c",
      "resource": {
        "resourceType": "Patient",
        "active": true,
        "gender": "male",
        "birthDate": "1960-12-25",
        "name": [
          {
            "use": "official",
            "family": "Wilson-b7479c7f",
            "given": [
              "George"
            ]
          }
        ],
        "identifier": [
          {
            "system": "http://example.com/mrn",
            "value": "MRN-006-b7479c7f"
          }
        ],
        "deceasedDateTime": "2025-01-15T10:30:00Z"
      },
      "request": {
        "method": "POST",
        "url": "Patient"
      }
    },
    {
      "fullUrl": "urn:uuid:18e247c2-9e38-4003-9364-2cdeee4e9f64",
      "resource": {
        "resourceType": "Patient",
        "active": true,
        "gender": "female",
        "birthDate": "1995-07-04",
        "name": [
          {
            "use": "official",
            "family": "Martinez-b7479c7f",
            "given": [
              "Sofia",
              "Isabella"
            ]
          },
          {
            "use": "maiden",
            "family": "Lopez-b7479c7f"
          }
        ],
        "identifier": [
          {
            "system": "http://example.com/mrn",
            "value": "MRN-007-b7479c7f"
          },
          {
            "system": "http://example.com/passport",
            "value": "PP-007-b7479c7f"
          }
        ],
        "telecom": [
          {
            "system": "phone",
            "value": "555-1007",
            "use": "mobile"
          },
          {
            "system": "phone",
            "value": "555-1008",
            "use": "home"
          },
          {
            "system": "email",
            "value": "sofia-b7479c7f@example.com"
          }
        ],
        "address": [
          {
            "use": "home",
            "line": [
              "1000 Maple Dr"
            ],
            "city": "Capital City",
            "state": "CA",
            "postalCode": "90001",
            "country": "US"
          },
          {
            "use": "temp",
            "city": "TempCity",
            "state": "NY"
          }
        ],
        "contact": [
          {
            "relationship": [
              {
                "coding": [
                  {
                    "system": "http://terminology.hl7.org/CodeSystem/v2-0131",
                    "code": "N"
                  }
                ]
              }
            ],
            "name": {
              "family": "EmergencyContact-b7479c7f",
              "given": [
                "Carlos"
              ]
            },
            "telecom": [
              {
                "system": "phone",
                "value": "555-9999"
              }
            ]
          }
        ]
      },
      "request": {
        "method": "POST",
        "url": "Patient"
      }
    },
    {
      "fullUrl": "urn:uuid:3aee1019-db09-4e4d-a561-f3cd6ba7d574",
      "resource": {
        "resourceType": "Encounter",
        "status": "finished",
        "class": {
          "system": "http://terminology.hl7.org/CodeSystem/v3-ActCode",
          "code": "AMB",
          "display": "Ambulatory-b7479c7f"
        },
        "subject": {
          "reference": "urn:uuid:cd7b4528-8db6-4756-a406-51db70bcf3ee"
        },
        "serviceProvider": {
          "reference": "urn:uuid:24d51cd1-b310-4838-99ce-618d7713face"
        },
        "participant": [
          {
            "individual": {
              "reference": "urn:uuid:d185110a-2d62-491e-88db-33dec4601ac0"
            }
          }
        ],
        "period": {
          "start": "2025-01-10T08:00:00Z",
          "end": "2025-01-10T09:00:00Z"
        },
        "type": [
          {
            "coding": [
              {
                "system": "http://snomed.info/sct",
                "code": "308335008",
                "display": "OPD-b7479c7f"
              }
            ]
          }
        ]
      },
      "request": {
        "method": "POST",
        "url": "Encounter"
      }
    },
    {
      "fullUrl": "urn:uuid:c8fa6cb4-8bef-4258-b881-c6f6e0b83a78",
      "resource": {
        "resourceType": "Encounter",
        "status": "finished",
        "class": {
          "system": "http://terminology.hl7.org/CodeSystem/v3-ActCode",
          "code": "IMP"
        },
        "subject": {
          "reference": "urn:uuid:cd7b4528-8db6-4756-a406-51db70bcf3ee"
        },
        "serviceProvider": {
          "reference": "urn:uuid:24d51cd1-b310-4838-99ce-618d7713face"
        },
        "period": {
          "start": "2025-02-01T10:00:00Z",
          "end": "2025-02-05T14:00:00Z"
        }
      },
      "request": {
        "method": "POST",
        "url": "Encounter"
      }
    },
    {
      "fullUrl": "urn:uuid:fcafd4b1-555a-4d19-9e1b-ce9d210f8f64",
      "resource": {
        "resourceType": "Encounter",
        "status": "finished",
        "class": {
          "system": "http://terminology.hl7.org/CodeSystem/v3-ActCode",
          "code": "AMB"
        },
        "subject": {
          "reference": "urn:uuid:f81db143-a877-43af-9b16-ba62cd8d49d2"
        },
        "serviceProvider": {
          "reference": "urn:uuid:24d51cd1-b310-4838-99ce-618d7713face"
        },
        "participant": [
          {
            "individual": {
              "reference": "urn:uuid:16c1b615-ab1f-42fb-a8c8-73a8a9db8814"
            }
          }
        ],
        "period": {
          "start": "2025-03-15T14:00:00Z"
        }
      },
      "request": {
        "method": "POST",
        "url": "Encounter"
      }
    },
    {
      "fullUrl": "urn:uuid:8066e7f1-12cf-4fac-82f1-5f447f281a31",
      "resource": {
        "resourceType": "Encounter",
        "status": "in-progress",
        "class": {
          "system": "http://terminology.hl7.org/CodeSystem/v3-ActCode",
          "code": "EMER"
        },
        "subject": {
          "reference": "urn:uuid:5639742a-013f-48f2-92bb-81745829b85d"
        },
        "serviceProvider": {
          "reference": "urn:uuid:24d51cd1-b310-4838-99ce-618d7713face"
        },
        "period": {
          "start": "2026-02-25T10:00:00Z"
        }
      },
      "request": {
        "method": "POST",
        "url": "Encounter"
      }
    },
    {
      "fullUrl": "urn:uuid:a781c71d-0943-4bfd-b706-14724bff7888",
      "resource": {
        "resourceType": "Encounter",
        "status": "planned",
        "class": {
          "system": "http://terminology.hl7.org/CodeSystem/v3-ActCode",
          "code": "AMB"
        },
        "subject": {
          "reference": "urn:uuid:efb7a408-602b-4672-9874-99308a7d9093"
        },
        "period": {
          "start": "2026-03-01T09:00:00Z"
        }
      },
      "request": {
        "method": "POST",
        "url": "Encounter"
      }
    },
    {
      "fullUrl": "urn:uuid:2037d740-f0da-4eea-a7e3-3a6949f31b05",
      "resource": {
        "resourceType": "Encounter",
        "status": "finished",
        "class": {
          "system": "http://terminology.hl7.org/CodeSystem/v3-ActCode",
          "code": "AMB"
        },
        "subject": {
          "reference": "urn:uuid:18e247c2-9e38-4003-9364-2cdeee4e9f64"
        },
        "serviceProvider": {
          "reference": "urn:uuid:65d72d63-05b2-400e-a9df-8e70ba5e064a"
        },
        "participant": [
          {
            "individual": {
              "reference": "urn:uuid:91c67dc4-52cf-46a5-b3fe-4694c7f169b5"
            }
          }
        ],
        "period": {
          "start": "2025-06-01T11:00:00Z",
          "end": "2025-06-01T12:00:00Z"
        }
      },
      "request": {
        "method": "POST",
        "url": "Encounter"
      }
    },
    {
      "fullUrl": "urn:uuid:e69f46bc-b6c9-4451-8e17-df325eb3dfdf",
      "resource": {
        "resourceType": "Condition",
        "clinicalStatus": {
          "coding": [
            {
              "system": "http://terminology.hl7.org/CodeSystem/condition-clinical",
              "code": "active"
            }
          ]
        },
        "verificationStatus": {
          "coding": [
            {
              "system": "http://terminology.hl7.org/CodeSystem/condition-ver-status",
              "code": "confirmed"
            }
          ]
        },
        "code": {
          "coding": [
            {
              "system": "http://snomed.info/sct",
              "code": "44054006",
              "display": "Type2DM-b7479c7f"
            }
          ]
        },
        "subject": {
          "reference": "urn:uuid:cd7b4528-8db6-4756-a406-51db70bcf3ee"
        },
        "encounter": {
          "reference": "urn:uuid:3aee1019-db09-4e4d-a561-f3cd6ba7d574"
        },
        "onsetDateTime": "2020-01-01"
      },
      "request": {
        "method": "POST",
        "url": "Condition"
      }
    },
    {
      "fullUrl": "urn:uuid:6eb740f3-f31c-40e7-b943-403a18e91aeb",
      "resource": {
        "resourceType": "Condition",
        "clinicalStatus": {
          "coding": [
            {
              "system": "http://terminology.hl7.org/CodeSystem/condition-clinical",
              "code": "active"
            }
          ]
        },
        "verificationStatus": {
          "coding": [
            {
              "system": "http://terminology.hl7.org/CodeSystem/condition-ver-status",
              "code": "confirmed"
            }
          ]
        },
        "code": {
          "coding": [
            {
              "system": "http://snomed.info/sct",
              "code": "38341003",
              "display": "Hypertension-b7479c7f"
            }
          ]
        },
        "subject": {
          "reference": "urn:uuid:cd7b4528-8db6-4756-a406-51db70bcf3ee"
        },
        "onsetDateTime": "2018-06-15"
      },
      "request": {
        "method": "POST",
        "url": "Condition"
      }
    },
    {
      "fullUrl": "urn:uuid:46621768-5127-4dc8-a59a-319e1c3c5cf7",
      "resource": {
        "resourceType": "Condition",
        "clinicalStatus": {
          "coding": [
            {
              "system": "http://terminology.hl7.org/CodeSystem/condition-clinical",
              "code": "resolved"
            }
          ]
        },
        "code": {
          "coding": [
            {
              "system": "http://snomed.info/sct",
              "code": "195662009",
              "display": "Pneumonia-b7479c7f"
            }
          ]
        },
        "subject": {
          "reference": "urn:uuid:f81db143-a877-43af-9b16-ba62cd8d49d2"
        },
        "encounter": {
          "reference": "urn:uuid:fcafd4b1-555a-4d19-9e1b-ce9d210f8f64"
        },
        "onsetDateTime": "2025-03-10",
        "abatementDateTime": "2025-03-25"
      },
      "request": {
        "method": "POST",
        "url": "Condition"
      }
    },
    {
      "fullUrl": "urn:uuid:25941bd0-418b-4328-9614-6f32ff72946d",
      "resource": {
        "resourceType": "Condition",
        "clinicalStatus": {
          "coding": [
            {
              "system": "http://terminology.hl7.org/CodeSystem/condition-clinical",
              "code": "active"
            }
          ]
        },
        "code": {
          "coding": [
            {
              "system": "http://snomed.info/sct",
              "code": "73211009",
              "display": "DiabetesI-b7479c7f"
            }
          ]
        },
        "subject": {
          "reference": "urn:uuid:5639742a-013f-48f2-92bb-81745829b85d"
        },
        "onsetDateTime": "2010-05-01"
      },
      "request": {
        "method": "POST",
        "url": "Condition"
      }
    },
    {
      "fullUrl": "urn:uuid:20aedc9e-dcd4-4587-a315-41b5bc929788",
      "resource": {
        "resourceType": "Condition",
        "clinicalStatus": {
          "coding": [
            {
              "system": "http://terminology.hl7.org/CodeSystem/condition-clinical",
              "code": "active"
            }
          ]
        },
        "code": {
          "coding": [
            {
              "system": "http://snomed.info/sct",
              "code": "195967001",
              "display": "Asthma-b7479c7f"
            }
          ]
        },
        "subject": {
          "reference": "urn:uuid:18e247c2-9e38-4003-9364-2cdeee4e9f64"
        },
        "encounter": {
          "reference": "urn:uuid:2037d740-f0da-4eea-a7e3-3a6949f31b05"
        },
        "onsetDateTime": "2015-08-20"
      },
      "request": {
        "method": "POST",
        "url": "Condition"
      }
    },
    {
      "fullUrl": "urn:uuid:1db1ea7c-04c9-4c8a-b8e8-d7c470fae105",
      "resource": {
        "resourceType": "Observation",
        "status": "final",
        "code": {
          "coding": [
            {
              "system": "http://loinc.org",
              "code": "29463-7",
              "display": "BodyWeight-b7479c7f"
            }
          ]
        },
        "subject": {
          "reference": "urn:uuid:cd7b4528-8db6-4756-a406-51db70bcf3ee"
        },
        "encounter": {
          "reference": "urn:uuid:3aee1019-db09-4e4d-a561-f3cd6ba7d574"
        },
        "valueQuantity": {
          "value": 75.5,
          "unit": "kg",
          "system": "http://unitsofmeasure.org",
          "code": "kg"
        },
        "effectiveDateTime": "2025-01-10T08:30:00Z",
        "category": [
          {
            "coding": [
              {
                "system": "http://terminology.hl7.org/CodeSystem/observation-category",
                "code": "vital-signs"
              }
            ]
          }
        ]
      },
      "request": {
        "method": "POST",
        "url": "Observation"
      }
    },
    {
      "fullUrl": "urn:uuid:87aef924-454b-41c4-8497-382b7c3b3251",
      "resource": {
        "resourceType": "Observation",
        "status": "final",
        "code": {
          "coding": [
            {
              "system": "http://loinc.org",
              "code": "8867-4",
              "display": "HeartRate-b7479c7f"
            }
          ]
        },
        "subject": {
          "reference": "urn:uuid:cd7b4528-8db6-4756-a406-51db70bcf3ee"
        },
        "encounter": {
          "reference": "urn:uuid:3aee1019-db09-4e4d-a561-f3cd6ba7d574"
        },
        "valueQuantity": {
          "value": 72,
          "unit": "/min",
          "system": "http://unitsofmeasure.org",
          "code": "/min"
        },
        "effectiveDateTime": "2025-01-10T08:30:00Z"
      },
      "request": {
        "method": "POST",
        "url": "Observation"
      }
    },
    {
      "fullUrl": "urn:uuid:3c5ef008-c0bc-46e4-97e5-a57e29d0661d",
      "resource": {
        "resourceType": "Observation",
        "status": "final",
        "code": {
          "coding": [
            {
              "system": "http://loinc.org",
              "code": "85354-9",
              "display": "BP-b7479c7f"
            }
          ]
        },
        "subject": {
          "reference": "urn:uuid:cd7b4528-8db6-4756-a406-51db70bcf3ee"
        },
        "encounter": {
          "reference": "urn:uuid:c8fa6cb4-8bef-4258-b881-c6f6e0b83a78"
        },
        "component": [
          {
            "code": {
              "coding": [
                {
                  "system": "http://loinc.org",
                  "code": "8480-6"
                }
              ]
            },
            "valueQuantity": {
              "value": 120,
              "unit": "mmHg"
            }
          },
          {
            "code": {
              "coding": [
                {
                  "system": "http://loinc.org",
                  "code": "8462-4"
                }
              ]
            },
            "valueQuantity": {
              "value": 80,
              "unit": "mmHg"
            }
          }
        ],
        "effectiveDateTime": "2025-02-01T10:30:00Z"
      },
      "request": {
        "method": "POST",
        "url": "Observation"
      }
    },
    {
      "fullUrl": "urn:uuid:33dddcb9-368a-4dd8-a362-d2b2cca9b4ff",
      "resource": {
        "resourceType": "Observation",
        "status": "final",
        "code": {
          "coding": [
            {
              "system": "http://loinc.org",
              "code": "2339-0",
              "display": "Glucose-b7479c7f"
            }
          ]
        },
        "subject": {
          "reference": "urn:uuid:f81db143-a877-43af-9b16-ba62cd8d49d2"
        },
        "encounter": {
          "reference": "urn:uuid:fcafd4b1-555a-4d19-9e1b-ce9d210f8f64"
        },
        "valueQuantity": {
          "value": 95,
          "unit": "mg/dL"
        },
        "effectiveDateTime": "2025-03-15T14:30:00Z",
        "interpretation": [
          {
            "coding": [
              {
                "system": "http://terminology.hl7.org/CodeSystem/v3-ObservationInterpretation",
                "code": "N",
                "display": "Normal"
              }
            ]
          }
        ]
      },
      "request": {
        "method": "POST",
        "url": "Observation"
      }
    },
    {
      "fullUrl": "urn:uuid:e4d30fe5-149d-40e0-af4a-132829127120",
      "resource": {
        "resourceType": "Observation",
        "status": "final",
        "code": {
          "coding": [
            {
              "system": "http://loinc.org",
              "code": "718-7",
              "display": "Hemoglobin-b7479c7f"
            }
          ]
        },
        "subject": {
          "reference": "urn:uuid:5639742a-013f-48f2-92bb-81745829b85d"
        },
        "valueQuantity": {
          "value": 14.2,
          "unit": "g/dL"
        },
        "effectiveDateTime": "2025-04-01"
      },
      "request": {
        "method": "POST",
        "url": "Observation"
      }
    },
    {
      "fullUrl": "urn:uuid:4f99fe8b-396e-4d6f-a853-40d085aa2e62",
      "resource": {
        "resourceType": "Observation",
        "status": "preliminary",
        "code": {
          "coding": [
            {
              "system": "http://loinc.org",
              "code": "6690-2",
              "display": "WBC-b7479c7f"
            }
          ]
        },
        "subject": {
          "reference": "urn:uuid:5639742a-013f-48f2-92bb-81745829b85d"
        },
        "encounter": {
          "reference": "urn:uuid:8066e7f1-12cf-4fac-82f1-5f447f281a31"
        },
        "valueQuantity": {
          "value": 8500,
          "unit": "/uL"
        },
        "effectiveDateTime": "2026-02-25T10:30:00Z"
      },
      "request": {
        "method": "POST",
        "url": "Observation"
      }
    },
    {
      "fullUrl": "urn:uuid:8079eeb1-255d-4764-9507-7766bebfe263",
      "resource": {
        "resourceType": "Observation",
        "status": "final",
        "code": {
          "coding": [
            {
              "system": "http://loinc.org",
              "code": "39156-5",
              "display": "BMI-b7479c7f"
            }
          ]
        },
        "subject": {
          "reference": "urn:uuid:18e247c2-9e38-4003-9364-2cdeee4e9f64"
        },
        "encounter": {
          "reference": "urn:uuid:2037d740-f0da-4eea-a7e3-3a6949f31b05"
        },
        "valueQuantity": {
          "value": 22.1,
          "unit": "kg/m2"
        },
        "effectiveDateTime": "2025-06-01T11:30:00Z"
      },
      "request": {
        "method": "POST",
        "url": "Observation"
      }
    },
    {
      "fullUrl": "urn:uuid:cb44f0be-c145-4810-96e0-26eceb2d59f7",
      "resource": {
        "resourceType": "Observation",
        "status": "final",
        "code": {
          "coding": [
            {
              "system": "http://loinc.org",
              "code": "8310-5",
              "display": "BodyTemp-b7479c7f"
            }
          ]
        },
        "subject": {
          "reference": "urn:uuid:18e247c2-9e38-4003-9364-2cdeee4e9f64"
        },
        "valueQuantity": {
          "value": 37.2,
          "unit": "Cel"
        },
        "effectiveDateTime": "2025-06-01T11:35:00Z"
      },
      "request": {
        "method": "POST",
        "url": "Observation"
      }
    },
    {
      "fullUrl": "urn:uuid:7ef1826b-d600-4f74-be87-f7930ab569ea",
      "resource": {
        "resourceType": "DiagnosticReport",
        "status": "final",
        "code": {
          "coding": [
            {
              "system": "http://loinc.org",
              "code": "58410-2",
              "display": "CBC-b7479c7f"
            }
          ]
        },
        "subject": {
          "reference": "urn:uuid:cd7b4528-8db6-4756-a406-51db70bcf3ee"
        },
        "encounter": {
          "reference": "urn:uuid:3aee1019-db09-4e4d-a561-f3cd6ba7d574"
        },
        "result": [
          {
            "reference": "urn:uuid:1db1ea7c-04c9-4c8a-b8e8-d7c470fae105"
          },
          {
            "reference": "urn:uuid:87aef924-454b-41c4-8497-382b7c3b3251"
          }
        ],
        "effectiveDateTime": "2025-01-10T09:00:00Z",
        "issued": "2025-01-10T10:00:00Z"
      },
      "request": {
        "method": "POST",
        "url": "DiagnosticReport"
      }
    },
    {
      "fullUrl": "urn:uuid:3c95062f-d17d-48b0-9a8a-27d8ab6b8ae6",
      "resource": {
        "resourceType": "DiagnosticReport",
        "status": "final",
        "code": {
          "coding": [
            {
              "system": "http://loinc.org",
              "code": "24323-8",
              "display": "CMP-b7479c7f"
            }
          ]
        },
        "subject": {
          "reference": "urn:uuid:cd7b4528-8db6-4756-a406-51db70bcf3ee"
        },
        "encounter": {
          "reference": "urn:uuid:c8fa6cb4-8bef-4258-b881-c6f6e0b83a78"
        },
        "result": [
          {
            "reference": "urn:uuid:3c5ef008-c0bc-46e4-97e5-a57e29d0661d"
          }
        ],
        "effectiveDateTime": "2025-02-01T11:00:00Z"
      },
      "request": {
        "method": "POST",
        "url": "DiagnosticReport"
      }
    },
    {
      "fullUrl": "urn:uuid:f4f43931-de39-46d9-8ba2-fece65f9c79d",
      "resource": {
        "resourceType": "DiagnosticReport",
        "status": "final",
        "code": {
          "coding": [
            {
              "system": "http://loinc.org",
              "code": "2339-0",
              "display": "GlucoseReport-b7479c7f"
            }
          ]
        },
        "subject": {
          "reference": "urn:uuid:f81db143-a877-43af-9b16-ba62cd8d49d2"
        },
        "result": [
          {
            "reference": "urn:uuid:33dddcb9-368a-4dd8-a362-d2b2cca9b4ff"
          }
        ],
        "effectiveDateTime": "2025-03-15T15:00:00Z"
      },
      "request": {
        "method": "POST",
        "url": "DiagnosticReport"
      }
    },
    {
      "fullUrl": "urn:uuid:4b785746-567e-45ec-8d79-c53299f59aa2",
      "resource": {
        "resourceType": "DiagnosticReport",
        "status": "preliminary",
        "code": {
          "coding": [
            {
              "system": "http://loinc.org",
              "code": "58410-2",
              "display": "CBC2-b7479c7f"
            }
          ]
        },
        "subject": {
          "reference": "urn:uuid:5639742a-013f-48f2-92bb-81745829b85d"
        },
        "result": [
          {
            "reference": "urn:uuid:e4d30fe5-149d-40e0-af4a-132829127120"
          },
          {
            "reference": "urn:uuid:4f99fe8b-396e-4d6f-a853-40d085aa2e62"
          }
        ],
        "effectiveDateTime": "2026-02-25T11:00:00Z"
      },
      "request": {
        "method": "POST",
        "url": "DiagnosticReport"
      }
    },
    {
      "fullUrl": "urn:uuid:228659c9-6209-49d4-8b07-136b813f540c",
      "resource": {
        "resourceType": "DiagnosticReport",
        "status": "final",
        "code": {
          "coding": [
            {
              "system": "http://loinc.org",
              "code": "55399-0",
              "display": "Vitals-b7479c7f"
            }
          ]
        },
        "subject": {
          "reference": "urn:uuid:18e247c2-9e38-4003-9364-2cdeee4e9f64"
        },
        "encounter": {
          "reference": "urn:uuid:2037d740-f0da-4eea-a7e3-3a6949f31b05"
        },
        "result": [
          {
            "reference": "urn:uuid:8079eeb1-255d-4764-9507-7766bebfe263"
          },
          {
            "reference": "urn:uuid:cb44f0be-c145-4810-96e0-26eceb2d59f7"
          }
        ],
        "effectiveDateTime": "2025-06-01T12:00:00Z"
      },
      "request": {
        "method": "POST",
        "url": "DiagnosticReport"
      }
    },
    {
      "fullUrl": "urn:uuid:32eeda46-900e-4d32-942b-08b615599f92",
      "resource": {
        "resourceType": "MedicationRequest",
        "status": "active",
        "intent": "order",
        "medicationReference": {
          "reference": "urn:uuid:caccc034-1fe0-4560-b814-e06e80cfbd24"
        },
        "subject": {
          "reference": "urn:uuid:cd7b4528-8db6-4756-a406-51db70bcf3ee"
        },
        "encounter": {
          "reference": "urn:uuid:3aee1019-db09-4e4d-a561-f3cd6ba7d574"
        },
        "requester": {
          "reference": "urn:uuid:d185110a-2d62-491e-88db-33dec4601ac0"
        },
        "authoredOn": "2025-01-10",
        "dosageInstruction": [
          {
            "text": "Take 500mg PRN-b7479c7f",
            "timing": {
              "repeat": {
                "frequency": 3,
                "period": 1,
                "periodUnit": "d"
              }
            }
          }
        ]
      },
      "request": {
        "method": "POST",
        "url": "MedicationRequest"
      }
    },
    {
      "fullUrl": "urn:uuid:a65a081e-e4f4-4bb2-aff9-af43d1fd8f59",
      "resource": {
        "resourceType": "MedicationRequest",
        "status": "active",
        "intent": "order",
        "medicationReference": {
          "reference": "urn:uuid:6c3937cb-f539-4559-95c7-028b92a477fb"
        },
        "subject": {
          "reference": "urn:uuid:cd7b4528-8db6-4756-a406-51db70bcf3ee"
        },
        "requester": {
          "reference": "urn:uuid:d185110a-2d62-491e-88db-33dec4601ac0"
        },
        "authoredOn": "2025-02-01",
        "dosageInstruction": [
          {
            "text": "250mg TID-b7479c7f"
          }
        ]
      },
      "request": {
        "method": "POST",
        "url": "MedicationRequest"
      }
    },
    {
      "fullUrl": "urn:uuid:a0067bc1-f40b-4e1f-8d91-a95e8614910e",
      "resource": {
        "resourceType": "MedicationRequest",
        "status": "active",
        "intent": "order",
        "medicationReference": {
          "reference": "urn:uuid:8b5bd44b-e2c1-4900-b941-9362008e66eb"
        },
        "subject": {
          "reference": "urn:uuid:f81db143-a877-43af-9b16-ba62cd8d49d2"
        },
        "requester": {
          "reference": "urn:uuid:16c1b615-ab1f-42fb-a8c8-73a8a9db8814"
        },
        "authoredOn": "2025-03-15"
      },
      "request": {
        "method": "POST",
        "url": "MedicationRequest"
      }
    },
    {
      "fullUrl": "urn:uuid:1dce71f5-c5a9-45be-888c-26e2659aa945",
      "resource": {
        "resourceType": "MedicationRequest",
        "status": "stopped",
        "intent": "order",
        "medicationReference": {
          "reference": "urn:uuid:47216535-3d7a-46ba-a198-520855b5c88d"
        },
        "subject": {
          "reference": "urn:uuid:5639742a-013f-48f2-92bb-81745829b85d"
        },
        "requester": {
          "reference": "urn:uuid:02aea334-6386-4d89-98e0-8531829ec712"
        },
        "authoredOn": "2025-04-01"
      },
      "request": {
        "method": "POST",
        "url": "MedicationRequest"
      }
    },
    {
      "fullUrl": "urn:uuid:1ac283c5-dc4f-4029-9762-1b997637390a",
      "resource": {
        "resourceType": "MedicationRequest",
        "status": "active",
        "intent": "plan",
        "medicationReference": {
          "reference": "urn:uuid:8ce8c44a-e1fe-458b-b93a-82ce41f1332c"
        },
        "subject": {
          "reference": "urn:uuid:18e247c2-9e38-4003-9364-2cdeee4e9f64"
        },
        "encounter": {
          "reference": "urn:uuid:2037d740-f0da-4eea-a7e3-3a6949f31b05"
        },
        "requester": {
          "reference": "urn:uuid:91c67dc4-52cf-46a5-b3fe-4694c7f169b5"
        },
        "authoredOn": "2025-06-01"
      },
      "request": {
        "method": "POST",
        "url": "MedicationRequest"
      }
    },
    {
      "fullUrl": "urn:uuid:caccc034-1fe0-4560-b814-e06e80cfbd24",
      "resource": {
        "resourceType": "Medication",
        "code": {
          "coding": [
            {
              "system": "http://www.nlm.nih.gov/research/umls/rxnorm",
              "code": "1049502",
              "display": "Acetaminophen-b7479c7f"
            }
          ]
        },
        "status": "active"
      },
      "request": {
        "method": "POST",
        "url": "Medication"
      }
    },
    {
      "fullUrl": "urn:uuid:6c3937cb-f539-4559-95c7-028b92a477fb",
      "resource": {
        "resourceType": "Medication",
        "code": {
          "coding": [
            {
              "system": "http://www.nlm.nih.gov/research/umls/rxnorm",
              "code": "197361",
              "display": "Amoxicillin-b7479c7f"
            }
          ]
        },
        "status": "active",
        "manufacturer": {
          "reference": "urn:uuid:82fd12e6-bfe6-4e4d-b8ff-9ccc954eacb5"
        }
      },
      "request": {
        "method": "POST",
        "url": "Medication"
      }
    },
    {
      "fullUrl": "urn:uuid:8b5bd44b-e2c1-4900-b941-9362008e66eb",
      "resource": {
        "resourceType": "Medication",
        "code": {
          "coding": [
            {
              "system": "http://www.nlm.nih.gov/research/umls/rxnorm",
              "code": "310965",
              "display": "Lisinopril-b7479c7f"
            }
          ]
        },
        "status": "active"
      },
      "request": {
        "method": "POST",
        "url": "Medication"
      }
    },
    {
      "fullUrl": "urn:uuid:47216535-3d7a-46ba-a198-520855b5c88d",
      "resource": {
        "resourceType": "Medication",
        "code": {
          "coding": [
            {
              "system": "http://www.nlm.nih.gov/research/umls/rxnorm",
              "code": "860975",
              "display": "Metformin-b7479c7f"
            }
          ]
        },
        "status": "active"
      },
      "request": {
        "method": "POST",
        "url": "Medication"
      }
    },
    {
      "fullUrl": "urn:uuid:8ce8c44a-e1fe-458b-b93a-82ce41f1332c",
      "resource": {
        "resourceType": "Medication",
        "code": {
          "coding": [
            {
              "system": "http://www.nlm.nih.gov/research/umls/rxnorm",
              "code": "198440",
              "display": "Omeprazole-b7479c7f"
            }
          ]
        },
        "status": "inactive"
      },
      "request": {
        "method": "POST",
        "url": "Medication"
      }
    },
    {
      "fullUrl": "urn:uuid:6171e7f7-f785-43fa-ad5a-5a8eb8f6e4fe",
      "resource": {
        "resourceType": "AllergyIntolerance",
        "clinicalStatus": {
          "coding": [
            {
              "system": "http://terminology.hl7.org/CodeSystem/allergyintolerance-clinical",
              "code": "active"
            }
          ]
        },
        "verificationStatus": {
          "coding": [
            {
              "system": "http://terminology.hl7.org/CodeSystem/allergyintolerance-verification",
              "code": "confirmed"
            }
          ]
        },
        "type": "allergy",
        "category": [
          "medication"
        ],
        "code": {
          "coding": [
            {
              "system": "http://snomed.info/sct",
              "code": "387458008",
              "display": "Aspirin-b7479c7f"
            }
          ]
        },
        "patient": {
          "reference": "urn:uuid:cd7b4528-8db6-4756-a406-51db70bcf3ee"
        },
        "onsetDateTime": "2015-01-01",
        "reaction": [
          {
            "manifestation": [
              {
                "coding": [
                  {
                    "system": "http://snomed.info/sct",
                    "code": "271807003",
                    "display": "Rash"
                  }
                ]
              }
            ],
            "severity": "moderate"
          }
        ]
      },
      "request": {
        "method": "POST",
        "url": "AllergyIntolerance"
      }
    },
    {
      "fullUrl": "urn:uuid:e31db4fc-5adb-41d0-9dea-da1df6c68e05",
      "resource": {
        "resourceType": "AllergyIntolerance",
        "clinicalStatus": {
          "coding": [
            {
              "system": "http://terminology.hl7.org/CodeSystem/allergyintolerance-clinical",
              "code": "active"
            }
          ]
        },
        "type": "allergy",
        "category": [
          "food"
        ],
        "code": {
          "coding": [
            {
              "system": "http://snomed.info/sct",
              "code": "91935009",
              "display": "Peanut-b7479c7f"
            }
          ]
        },
        "patient": {
          "reference": "urn:uuid:cd7b4528-8db6-4756-a406-51db70bcf3ee"
        }
      },
      "request": {
        "method": "POST",
        "url": "AllergyIntolerance"
      }
    },
    {
      "fullUrl": "urn:uuid:886fedae-b58f-4451-83c6-dfc62e3dedf0",
      "resource": {
        "resourceType": "AllergyIntolerance",
        "clinicalStatus": {
          "coding": [
            {
              "system": "http://terminology.hl7.org/CodeSystem/allergyintolerance-clinical",
              "code": "active"
            }
          ]
        },
        "type": "intolerance",
        "category": [
          "medication"
        ],
        "code": {
          "coding": [
            {
              "system": "http://snomed.info/sct",
              "code": "372687004",
              "display": "Penicillin-b7479c7f"
            }
          ]
        },
        "patient": {
          "reference": "urn:uuid:f81db143-a877-43af-9b16-ba62cd8d49d2"
        }
      },
      "request": {
        "method": "POST",
        "url": "AllergyIntolerance"
      }
    },
    {
      "fullUrl": "urn:uuid:e5b9390a-3988-47c8-bc2f-bca624320b2d",
      "resource": {
        "resourceType": "AllergyIntolerance",
        "clinicalStatus": {
          "coding": [
            {
              "system": "http://terminology.hl7.org/CodeSystem/allergyintolerance-clinical",
              "code": "resolved"
            }
          ]
        },
        "code": {
          "coding": [
            {
              "system": "http://snomed.info/sct",
              "code": "264295007",
              "display": "Latex-b7479c7f"
            }
          ]
        },
        "patient": {
          "reference": "urn:uuid:5639742a-013f-48f2-92bb-81745829b85d"
        }
      },
      "request": {
        "method": "POST",
        "url": "AllergyIntolerance"
      }
    },
    {
      "fullUrl": "urn:uuid:0cac427f-4822-4860-9f1e-560c5a009254",
      "resource": {
        "resourceType": "AllergyIntolerance",
        "clinicalStatus": {
          "coding": [
            {
              "system": "http://terminology.hl7.org/CodeSystem/allergyintolerance-clinical",
              "code": "active"
            }
          ]
        },
        "type": "allergy",
        "category": [
          "environment"
        ],
        "code": {
          "coding": [
            {
              "system": "http://snomed.info/sct",
              "code": "256259004",
              "display": "Pollen-b7479c7f"
            }
          ]
        },
        "patient": {
          "reference": "urn:uuid:18e247c2-9e38-4003-9364-2cdeee4e9f64"
        }
      },
      "request": {
        "method": "POST",
        "url": "AllergyIntolerance"
      }
    },
    {
      "fullUrl": "urn:uuid:7fc4554c-0ef4-4bf8-9a18-4d79ee8246bd",
      "resource": {
        "resourceType": "Procedure",
        "status": "completed",
        "code": {
          "coding": [
            {
              "system": "http://snomed.info/sct",
              "code": "80146002",
              "display": "Appendectomy-b7479c7f"
            }
          ]
        },
        "subject": {
          "reference": "urn:uuid:cd7b4528-8db6-4756-a406-51db70bcf3ee"
        },
        "encounter": {
          "reference": "urn:uuid:c8fa6cb4-8bef-4258-b881-c6f6e0b83a78"
        },
        "performedDateTime": "2025-02-03T14:00:00Z",
        "performer": [
          {
            "actor": {
              "reference": "urn:uuid:02aea334-6386-4d89-98e0-8531829ec712"
            }
          }
        ]
      },
      "request": {
        "method": "POST",
        "url": "Procedure"
      }
    },
    {
      "fullUrl": "urn:uuid:d16c2beb-b228-4d8e-9967-474ee863df33",
      "resource": {
        "resourceType": "Procedure",
        "status": "completed",
        "code": {
          "coding": [
            {
              "system": "http://snomed.info/sct",
              "code": "232717009",
              "display": "Coronography-b7479c7f"
            }
          ]
        },
        "subject": {
          "reference": "urn:uuid:cd7b4528-8db6-4756-a406-51db70bcf3ee"
        },
        "performedPeriod": {
          "start": "2025-02-04T08:00:00Z",
          "end": "2025-02-04T10:00:00Z"
        }
      },
      "request": {
        "method": "POST",
        "url": "Procedure"
      }
    },
    {
      "fullUrl": "urn:uuid:0ba5c7a4-9f30-43af-a667-14d36c2e24e9",
      "resource": {
        "resourceType": "Procedure",
        "status": "completed",
        "code": {
          "coding": [
            {
              "system": "http://snomed.info/sct",
              "code": "36969009",
              "display": "BloodDraw-b7479c7f"
            }
          ]
        },
        "subject": {
          "reference": "urn:uuid:f81db143-a877-43af-9b16-ba62cd8d49d2"
        },
        "encounter": {
          "reference": "urn:uuid:fcafd4b1-555a-4d19-9e1b-ce9d210f8f64"
        },
        "performedDateTime": "2025-03-15T14:15:00Z"
      },
      "request": {
        "method": "POST",
        "url": "Procedure"
      }
    },
    {
      "fullUrl": "urn:uuid:d658d947-8b34-4060-9705-e1057b0103ed",
      "resource": {
        "resourceType": "Procedure",
        "status": "in-progress",
        "code": {
          "coding": [
            {
              "system": "http://snomed.info/sct",
              "code": "418891003",
              "display": "Dressing-b7479c7f"
            }
          ]
        },
        "subject": {
          "reference": "urn:uuid:5639742a-013f-48f2-92bb-81745829b85d"
        },
        "encounter": {
          "reference": "urn:uuid:8066e7f1-12cf-4fac-82f1-5f447f281a31"
        },
        "performedDateTime": "2026-02-25T11:00:00Z"
      },
      "request": {
        "method": "POST",
        "url": "Procedure"
      }
    },
    {
      "fullUrl": "urn:uuid:d66eb6f8-4013-44e5-bb33-aebaf3199010",
      "resource": {
        "resourceType": "Procedure",
        "status": "completed",
        "code": {
          "coding": [
            {
              "system": "http://snomed.info/sct",
              "code": "274025005",
              "display": "EKG-b7479c7f"
            }
          ]
        },
        "subject": {
          "reference": "urn:uuid:18e247c2-9e38-4003-9364-2cdeee4e9f64"
        },
        "encounter": {
          "reference": "urn:uuid:2037d740-f0da-4eea-a7e3-3a6949f31b05"
        },
        "performedDateTime": "2025-06-01T11:45:00Z"
      },
      "request": {
        "method": "POST",
        "url": "Procedure"
      }
    },
    {
      "fullUrl": "urn:uuid:408e2512-e579-4765-b2a1-162d8453515e",
      "resource": {
        "resourceType": "ServiceRequest",
        "status": "active",
        "intent": "order",
        "code": {
          "coding": [
            {
              "system": "http://snomed.info/sct",
              "code": "26604007",
              "display": "FBC-b7479c7f"
            }
          ]
        },
        "subject": {
          "reference": "urn:uuid:cd7b4528-8db6-4756-a406-51db70bcf3ee"
        },
        "encounter": {
          "reference": "urn:uuid:3aee1019-db09-4e4d-a561-f3cd6ba7d574"
        },
        "requester": {
          "reference": "urn:uuid:d185110a-2d62-491e-88db-33dec4601ac0"
        },
        "authoredOn": "2025-01-10"
      },
      "request": {
        "method": "POST",
        "url": "ServiceRequest"
      }
    },
    {
      "fullUrl": "urn:uuid:caec92ec-39af-4325-8778-d2c212486bdb",
      "resource": {
        "resourceType": "ServiceRequest",
        "status": "completed",
        "intent": "order",
        "code": {
          "coding": [
            {
              "system": "http://snomed.info/sct",
              "code": "77477000",
              "display": "CTScan-b7479c7f"
            }
          ]
        },
        "subject": {
          "reference": "urn:uuid:cd7b4528-8db6-4756-a406-51db70bcf3ee"
        },
        "encounter": {
          "reference": "urn:uuid:c8fa6cb4-8bef-4258-b881-c6f6e0b83a78"
        },
        "authoredOn": "2025-02-01"
      },
      "request": {
        "method": "POST",
        "url": "ServiceRequest"
      }
    },
    {
      "fullUrl": "urn:uuid:3c990bbc-a656-460f-ae8a-b9f16324c8f0",
      "resource": {
        "resourceType": "ServiceRequest",
        "status": "active",
        "intent": "order",
        "code": {
          "coding": [
            {
              "system": "http://snomed.info/sct",
              "code": "104001",
              "display": "Excision-b7479c7f"
            }
          ]
        },
        "subject": {
          "reference": "urn:uuid:f81db143-a877-43af-9b16-ba62cd8d49d2"
        },
        "authoredOn": "2025-03-15"
      },
      "request": {
        "method": "POST",
        "url": "ServiceRequest"
      }
    },
    {
      "fullUrl": "urn:uuid:91c37bbe-0cb5-4765-a687-40977b01e11a",
      "resource": {
        "resourceType": "ServiceRequest",
        "status": "active",
        "intent": "order",
        "code": {
          "coding": [
            {
              "system": "http://snomed.info/sct",
              "code": "252275004",
              "display": "Imaging-b7479c7f"
            }
          ]
        },
        "subject": {
          "reference": "urn:uuid:5639742a-013f-48f2-92bb-81745829b85d"
        },
        "encounter": {
          "reference": "urn:uuid:8066e7f1-12cf-4fac-82f1-5f447f281a31"
        },
        "authoredOn": "2026-02-25"
      },
      "request": {
        "method": "POST",
        "url": "ServiceRequest"
      }
    },
    {
      "fullUrl": "urn:uuid:1d9560a9-9648-4431-9702-c2021db585df",
      "resource": {
        "resourceType": "ServiceRequest",
        "status": "active",
        "intent": "plan",
        "code": {
          "coding": [
            {
              "system": "http://snomed.info/sct",
              "code": "409063005",
              "display": "Counseling-b7479c7f"
            }
          ]
        },
        "subject": {
          "reference": "urn:uuid:18e247c2-9e38-4003-9364-2cdeee4e9f64"
        },
        "authoredOn": "2025-06-01"
      },
      "request": {
        "method": "POST",
        "url": "ServiceRequest"
      }
    },
    {
      "fullUrl": "urn:uuid:576780ed-1304-4ece-8567-aa977a3b5fd5",
      "resource": {
        "resourceType": "CarePlan",
        "status": "active",
        "intent": "plan",
        "title": "DM Management-b7479c7f",
        "subject": {
          "reference": "urn:uuid:cd7b4528-8db6-4756-a406-51db70bcf3ee"
        },
        "encounter": {
          "reference": "urn:uuid:3aee1019-db09-4e4d-a561-f3cd6ba7d574"
        },
        "addresses": [
          {
            "reference": "urn:uuid:e69f46bc-b6c9-4451-8e17-df325eb3dfdf"
          }
        ],
        "category": [
          {
            "coding": [
              {
                "system": "http://hl7.org/fhir/us/core/CodeSystem/careplan-category",
                "code": "assess-plan"
              }
            ]
          }
        ]
      },
      "request": {
        "method": "POST",
        "url": "CarePlan"
      }
    },
    {
      "fullUrl": "urn:uuid:9f60ba19-ea80-4a51-9cac-5876fd9d4daf",
      "resource": {
        "resourceType": "CarePlan",
        "status": "active",
        "intent": "plan",
        "title": "HTN Management-b7479c7f",
        "subject": {
          "reference": "urn:uuid:cd7b4528-8db6-4756-a406-51db70bcf3ee"
        },
        "addresses": [
          {
            "reference": "urn:uuid:6eb740f3-f31c-40e7-b943-403a18e91aeb"
          }
        ]
      },
      "request": {
        "method": "POST",
        "url": "CarePlan"
      }
    },
    {
      "fullUrl": "urn:uuid:167863fc-d118-4f9f-9a53-f7da647d106e",
      "resource": {
        "resourceType": "CarePlan",
        "status": "completed",
        "intent": "plan",
        "title": "Pneumonia Recovery-b7479c7f",
        "subject": {
          "reference": "urn:uuid:f81db143-a877-43af-9b16-ba62cd8d49d2"
        },
        "addresses": [
          {
            "reference": "urn:uuid:46621768-5127-4dc8-a59a-319e1c3c5cf7"
          }
        ]
      },
      "request": {
        "method": "POST",
        "url": "CarePlan"
      }
    },
    {
      "fullUrl": "urn:uuid:153e5816-78e8-4c3a-a5c9-6b56c0acf216",
      "resource": {
        "resourceType": "CarePlan",
        "status": "active",
        "intent": "plan",
        "title": "DM1 Care-b7479c7f",
        "subject": {
          "reference": "urn:uuid:5639742a-013f-48f2-92bb-81745829b85d"
        },
        "addresses": [
          {
            "reference": "urn:uuid:25941bd0-418b-4328-9614-6f32ff72946d"
          }
        ]
      },
      "request": {
        "method": "POST",
        "url": "CarePlan"
      }
    },
    {
      "fullUrl": "urn:uuid:eba366ad-3f55-448e-b86e-fb388b0691e1",
      "resource": {
        "resourceType": "CarePlan",
        "status": "active",
        "intent": "plan",
        "title": "Asthma Action-b7479c7f",
        "subject": {
          "reference": "urn:uuid:18e247c2-9e38-4003-9364-2cdeee4e9f64"
        },
        "encounter": {
          "reference": "urn:uuid:2037d740-f0da-4eea-a7e3-3a6949f31b05"
        },
        "addresses": [
          {
            "reference": "urn:uuid:20aedc9e-dcd4-4587-a315-41b5bc929788"
          }
        ]
      },
      "request": {
        "method": "POST",
        "url": "CarePlan"
      }
    },
    {
      "fullUrl": "urn:uuid:9499a931-feb8-4f1b-bf0b-192dce3e347d",
      "resource": {
        "resourceType": "Immunization",
        "status": "completed",
        "vaccineCode": {
          "coding": [
            {
              "system": "http://hl7.org/fhir/sid/cvx",
              "code": "208",
              "display": "COVID19-b7479c7f"
            }
          ]
        },
        "patient": {
          "reference": "urn:uuid:cd7b4528-8db6-4756-a406-51db70bcf3ee"
        },
        "occurrenceDateTime": "2025-01-15T09:00:00Z",
        "encounter": {
          "reference": "urn:uuid:3aee1019-db09-4e4d-a561-f3cd6ba7d574"
        }
      },
      "request": {
        "method": "POST",
        "url": "Immunization"
      }
    },
    {
      "fullUrl": "urn:uuid:4f7b1a52-71e2-4204-b607-77c3b9d1961a",
      "resource": {
        "resourceType": "Immunization",
        "status": "completed",
        "vaccineCode": {
          "coding": [
            {
              "system": "http://hl7.org/fhir/sid/cvx",
              "code": "141",
              "display": "Influenza-b7479c7f"
            }
          ]
        },
        "patient": {
          "reference": "urn:uuid:cd7b4528-8db6-4756-a406-51db70bcf3ee"
        },
        "occurrenceDateTime": "2025-10-01"
      },
      "request": {
        "method": "POST",
        "url": "Immunization"
      }
    },
    {
      "fullUrl": "urn:uuid:6a94f712-84e7-4db5-bfad-0efe2bf1ab3e",
      "resource": {
        "resourceType": "Immunization",
        "status": "completed",
        "vaccineCode": {
          "coding": [
            {
              "system": "http://hl7.org/fhir/sid/cvx",
              "code": "08",
              "display": "HepB-b7479c7f"
            }
          ]
        },
        "patient": {
          "reference": "urn:uuid:f81db143-a877-43af-9b16-ba62cd8d49d2"
        },
        "occurrenceDateTime": "2025-04-01"
      },
      "request": {
        "method": "POST",
        "url": "Immunization"
      }
    },
    {
      "fullUrl": "urn:uuid:9ab41103-1043-4117-a1d7-70ac5b6798b1",
      "resource": {
        "resourceType": "Immunization",
        "status": "not-done",
        "vaccineCode": {
          "coding": [
            {
              "system": "http://hl7.org/fhir/sid/cvx",
              "code": "03",
              "display": "MMR-b7479c7f"
            }
          ]
        },
        "patient": {
          "reference": "urn:uuid:efb7a408-602b-4672-9874-99308a7d9093"
        },
        "occurrenceDateTime": "2025-05-01",
        "statusReason": {
          "coding": [
            {
              "system": "http://terminology.hl7.org/CodeSystem/v3-ActReason",
              "code": "MEDPREC"
            }
          ]
        }
      },
      "request": {
        "method": "POST",
        "url": "Immunization"
      }
    },
    {
      "fullUrl": "urn:uuid:c4b7d288-a451-4c56-ac0e-d927844ed1ca",
      "resource": {
        "resourceType": "Immunization",
        "status": "completed",
        "vaccineCode": {
          "coding": [
            {
              "system": "http://hl7.org/fhir/sid/cvx",
              "code": "113",
              "display": "Tdap-b7479c7f"
            }
          ]
        },
        "patient": {
          "reference": "urn:uuid:18e247c2-9e38-4003-9364-2cdeee4e9f64"
        },
        "occurrenceDateTime": "2025-06-01",
        "encounter": {
          "reference": "urn:uuid:2037d740-f0da-4eea-a7e3-3a6949f31b05"
        }
      },
      "request": {
        "method": "POST",
        "url": "Immunization"
      }
    }
  ]
}