{
  "resourceType": "Bundle",
  "type": "transaction",
  "entry": [
    {
      "fullUrl": "urn:uuid:44194e81-3e3f-4164-ae54-d3814e533361",
      "resource": {
        "resourceType": "Organization",
        "name": "Central Hospital-5d6f99da",
        "identifier": [
          {
            "system": "http://example.com/org",
            "value": "ORG-001-5d6f99da"
          }
        ],
        "type": [
          {
            "coding": [
              {
                "system": "http://terminology.hl7.org/CodeSystem/organization-type",
                "code": "prov"
              }
            ]
          }
        ],
        "telecom": [
          {
            "system": "phone",
            "value": "555-0100"
          }
        ],
        "address": [
          {
            "line": [
              "100 Main St"
            ],
            "city": "Springfield",
            "state": "IL",
            "postalCode": "62701",
            "country": "US"
          }
        ]
      },
      "request": {
        "method": "POST",
        "url": "Organization"
      }
    },
    {
      "fullUrl": "urn:uuid:481069a7-3adc-4617-8d4b-a01f9e46f022",
      "resource": {
        "resourceType": "Organization",
        "name": "East Wing Lab-5d6f99da",
        "identifier": [
          {
            "system": "http://example.com/org",
            "value": "ORG-002-5d6f99da"
          }
        ],
        "type": [
          {
            "coding": [
              {
                "system": "http://terminology.hl7.org/CodeSystem/organization-type",
                "code": "dept"
              }
            ]
          }
        ]
      },
      "request": {
        "method": "POST",
        "url": "Organization"
      }
    },
    {
      "fullUrl": "urn:uuid:570bcc9c-c11c-4dd4-af7a-2f20b17c758d",
      "resource": {
        "resourceType": "Organization",
        "name": "Pharmacy Services-5d6f99da",
        "identifier": [
          {
            "system": "http://example.com/org",
            "value": "ORG-003-5d6f99da"
          }
        ]
      },
      "request": {
        "method": "POST",
        "url": "Organization"
      }
    },
    {
      "fullUrl": "urn:uuid:b6b9fad0-2502-40b0-9a8b-ede49bf27b91",
      "resource": {
        "resourceType": "Organization",
        "name": "Insurance Corp-5d6f99da",
        "identifier": [
          {
            "system": "http://example.com/org",
            "value": "ORG-004-5d6f99da"
          }
        ],
        "type": [
          {
            "coding": [
              {
                "system": "http://terminology.hl7.org/CodeSystem/organization-type",
                "code": "ins"
              }
            ]
          }
        ]
      },
      "request": {
        "method": "POST",
        "url": "Organization"
      }
    },
    {
      "fullUrl": "urn:uuid:3407b715-cda4-4c1e-815c-7593453e8dbc",
      "resource": {
        "resourceType": "Organization",
        "name": "Specialty Clinic-5d6f99da",
        "identifier": [
          {
            "system": "http://example.com/org",
            "value": "ORG-005-5d6f99da"
          }
        ],
        "address": [
          {
            "line": [
              "200 Oak Ave"
            ],
            "city": "Shelbyville",
            "state": "IL",
            "postalCode": "62702",
            "country": "US"
          }
        ]
      },
      "request": {
        "method": "POST",
        "url": "Organization"
      }
    },
    {
      "fullUrl": "urn:uuid:e135bec1-a656-47d8-bb23-fd1f348a747e",
      "resource": {
        "resourceType": "Practitioner",
        "name": [
          {
            "family": "Smith-5d6f99da",
            "given": [
              "John",
              "A"
            ],
            "prefix": [
              "Dr."
            ]
          }
        ],
        "identifier": [
          {
            "system": "http://example.com/npi",
            "value": "NPI-001-5d6f99da"
          }
        ],
        "gender": "male",
        "birthDate": "1975-03-15",
        "telecom": [
          {
            "system": "email",
            "value": "john.smith-5d6f99da@hospital.com"
          }
        ],
        "address": [
          {
            "line": [
              "100 Main St"
            ],
            "city": "Springfield",
            "state": "IL",
            "postalCode": "62701",
            "country": "US"
          }
        ]
      },
      "request": {
        "method": "POST",
        "url": "Practitioner"
      }
    },
    {
      "fullUrl": "urn:uuid:8ab34332-dd1d-4b2c-b395-e1bea6e14e51",
      "resource": {
        "resourceType": "Practitioner",
        "name": [
          {
            "family": "Johnson-5d6f99da",
            "given": [
              "Emily"
            ]
          }
        ],
        "identifier": [
          {
            "system": "http://example.com/npi",
            "value": "NPI-002-5d6f99da"
          }
        ],
        "gender": "female"
      },
      "request": {
        "method": "POST",
        "url": "Practitioner"
      }
    },
    {
      "fullUrl": "urn:uuid:fd6ca239-fb9b-4483-a26c-e2a2d927ee6d",
      "resource": {
        "resourceType": "Practitioner",
        "name": [
          {
            "family": "Williams-5d6f99da",
            "given": [
              "Robert"
            ]
          }
        ],
        "identifier": [
          {
            "system": "http://example.com/npi",
            "value": "NPI-003-5d6f99da"
          }
        ],
        "gender": "male"
      },
      "request": {
        "method": "POST",
        "url": "Practitioner"
      }
    },
    {
      "fullUrl": "urn:uuid:694b94a0-329a-4a5f-abb1-7fddefe119d4",
      "resource": {
        "resourceType": "Practitioner",
        "name": [
          {
            "family": "Brown-5d6f99da",
            "given": [
              "Sarah"
            ]
          }
        ],
        "identifier": [
          {
            "system": "http://example.com/npi",
            "value": "NPI-004-5d6f99da"
          }
        ],
        "gender": "female"
      },
      "request": {
        "method": "POST",
        "url": "Practitioner"
      }
    },
    {
      "fullUrl": "urn:uuid:09a8986b-9193-4186-995e-9c9bedd749b5",
      "resource": {
        "resourceType": "Practitioner",
        "name": [
          {
            "family": "Davis-5d6f99da",
            "given": [
              "Michael",
              "J"
            ]
          }
        ],
        "identifier": [
          {
            "system": "http://example.com/npi",
            "value": "NPI-005-5d6f99da"
          }
        ],
        "gender": "male",
        "telecom": [
          {
            "system": "phone",
            "value": "555-0200"
          },
          {
            "system": "email",
            "value": "michael.davis-5d6f99da@hospital.com"
          }
        ]
      },
      "request": {
        "method": "POST",
        "url": "Practitioner"
      }
    },
    {
      "fullUrl": "urn:uuid:49c29039-f892-4507-a50b-0b3f238c5a65",
      "resource": {
        "resourceType": "PractitionerRole",
        "practitioner": {
          "reference": "urn:uuid:e135bec1-a656-47d8-bb23-fd1f348a747e"
        },
        "organization": {
          "reference": "urn:uuid:44194e81-3e3f-4164-ae54-d3814e533361"
        },
        "code": [
          {
            "coding": [
              {
                "system": "http://snomed.info/sct",
                "code": "59058001",
                "display": "GP-5d6f99da"
              }
            ]
          }
        ],
        "active": true
      },
      "request": {
        "method": "POST",
        "url": "PractitionerRole"
      }
    },
    {
      "fullUrl": "urn:uuid:71f0f62f-e849-40be-9f4a-12c2cce3111d",
      "resource": {
        "resourceType": "PractitionerRole",
        "practitioner": {
          "reference": "urn:uuid:8ab34332-dd1d-4b2c-b395-e1bea6e14e51"
        },
        "organization": {
          "reference": "urn:uuid:481069a7-3adc-4617-8d4b-a01f9e46f022"
        },
        "code": [
          {
            "coding": [
              {
                "system": "http://snomed.info/sct",
                "code": "61246008",
                "display": "Lab-5d6f99da"
              }
            ]
          }
        ]
      },
      "request": {
        "method": "POST",
        "url": "PractitionerRole"
      }
    },
    {
      "fullUrl": "urn:uuid:07ce4e6b-ed37-43f0-a024-1a725e7f9e78",
      "resource": {
        "resourceType": "PractitionerRole",
        "practitioner": {
          "reference": "urn:uuid:fd6ca239-fb9b-4483-a26c-e2a2d927ee6d"
        },
        "organization": {
          "reference": "urn:uuid:44194e81-3e3f-4164-ae54-d3814e533361"
        },
        "code": [
          {
            "coding": [
              {
                "system": "http://snomed.info/sct",
                "code": "304292004",
                "display": "Surgeon-5d6f99da"
              }
            ]
          }
        ]
      },
      "request": {
        "method": "POST",
        "url": "PractitionerRole"
      }
    },
    {
      "fullUrl": "urn:uuid:6eb8e1ea-a7a0-4223-8286-f53fd9e482c3",
      "resource": {
        "resourceType": "PractitionerRole",
        "practitioner": {
          "reference": "urn:uuid:694b94a0-329a-4a5f-abb1-7fddefe119d4"
        },
        "organization": {
          "reference": "urn:uuid:570bcc9c-c11c-4dd4-af7a-2f20b17c758d"
        },
        "code": [
          {
            "coding": [
              {
                "system": "http://snomed.info/sct",
                "code": "46255001",
                "display": "Pharmacist-5d6f99da"
              }
            ]
          }
        ]
      },
      "request": {
        "method": "POST",
        "url": "PractitionerRole"
      }
    },
    {
      "fullUrl": "urn:uuid:e2f55078-b3a9-486a-9b05-bf7815a30750",
      "resource": {
        "resourceType": "PractitionerRole",
        "practitioner": {
          "reference": "urn:uuid:09a8986b-9193-4186-995e-9c9bedd749b5"
        },
        "organization": {
          "reference": "urn:uuid:3407b715-cda4-4c1e-815c-7593453e8dbc"
        },
        "code": [
          {
            "coding": [
              {
                "system": "http://snomed.info/sct",
                "code": "309343006",
                "display": "Specialist-5d6f99da"
              }
            ]
          }
        ]
      },
      "request": {
        "method": "POST",
        "url": "PractitionerRole"
      }
    },
    {
      "fullUrl": "urn:uuid:ad9d1e8c-2ebe-4f9c-9c9b-3fd58589bc78",
      "resource": {
        "resourceType": "Patient",
        "active": true,
        "gender": "male",
        "birthDate": "1985-06-15",
        "name": [
          {
            "use": "official",
            "family": "Doe-5d6f99da",
            "given": [
              "John",
              "Michael"
            ]
          },
          {
            "use": "nickname",
            "given": [
              "Johnny"
            ]
          }
        ],
        "identifier": [
          {
            "system": "http://example.com/mrn",
            "value": "MRN-001-5d6f99da"
          },
          {
            "system": "http://example.com/ssn",
            "value": "SSN-001-5d6f99da"
          }
        ],
        "telecom": [
          {
            "system": "phone",
            "value": "555-1001",
            "use": "home"
          },
          {
            "system": "email",
            "value": "john.doe-5d6f99da@example.com",
            "use": "work"
          }
        ],
        "address": [
          {
            "use": "home",
            "line": [
              "123 Elm St",
              "Apt 4B"
            ],
            "city": "Springfield",
            "state": "IL",
            "postalCode": "62701",
            "country": "US"
          }
        ],
        "managingOrganization": {
          "reference": "urn:uuid:44194e81-3e3f-4164-ae54-d3814e533361"
        },
        "generalPractitioner": [
          {
            "reference": "urn:uuid:e135bec1-a656-47d8-bb23-fd1f348a747e"
          }
        ],
        "meta": {
          "tag": [
            {
              "system": "http://example.com/tags",
              "code": "vip-5d6f99da"
            }
          ]
        },
        "maritalStatus": {
          "coding": [
            {
              "system": "http://terminology.hl7.org/CodeSystem/v3-MaritalStatus",
              "code": "M",
              "display": "Married"
            }
          ]
        },
        "communication": [
          {
            "language": {
              "coding": [
                {
                  "system": "urn:ietf:bcp:47",
                  "code": "en"
                }
              ]
            }
          }
        ]
      },
      "request": {
        "method": "POST",
        "url": "Patient"
      }
    },
    {
      "fullUrl": "urn:uuid:2cea83d1-2c50-4de3-badd-cb45bce0959a",
      "resource": {
        "resourceType": "Patient",
        "active": true,
        "gender": "female",
        "birthDate": "1990-11-22",
        "name": [
          {
            "use": "official",
            "family": "Smith-5d6f99da",
            "given": [
              "Jane",
              "Elizabeth"
            ]
          }
        ],
        "identifier": [
          {
            "system": "http://example.com/mrn",
            "value": "MRN-002-5d6f99da"
          }
        ],
        "telecom": [
          {
            "system": "phone",
            "value": "555-1002"
          }
        ],
        "address": [
          {
            "use": "home",
            "line": [
              "456 Oak Ave"
            ],
            "city": "Chicago",
            "state": "IL",
            "postalCode": "60601",
            "country": "US"
          }
        ],
        "managingOrganization": {
          "reference": "urn:uuid:44194e81-3e3f-4164-ae54-d3814e533361"
        }
      },
      "request": {
        "method": "POST",
        "url": "Patient"
      }
    },
    {
      "fullUrl": "urn:uuid:15481d87-7741-4e7b-a2c5-d06b1a63ce63",
      "resource": {
        "resourceType": "Patient",
        "active": true,
        "gender": "male",
        "birthDate": "1978-01-30",
        "name": [
          {
            "use": "official",
            "family": "Williams-5d6f99da",
            "given": [
              "Robert"
            ]
          }
        ],
        "identifier": [
          {
            "system": "http://example.com/mrn",
            "value": "MRN-003-5d6f99da"
          }
        ],
        "address": [
          {
            "line": [
              "789 Pine Rd"
            ],
            "city": "Shelbyville",
            "state": "IL",
            "postalCode": "62702",
            "country": "US"
          },
          {
            "use": "work",
            "line": [
              "100 Main St"
            ],
            "city": "Springfield",
            "state": "IL"
          }
        ],
        "generalPractitioner": [
          {
            "reference": "urn:uuid:fd6ca239-fb9b-4483-a26c-e2a2d927ee6d"
          }
        ],
        "meta": {
          "tag": [
            {
              "system": "http://example.com/tags",
              "code": "urgent-5d6f99da"
            },
            {
              "system": "http://example.com/tags",
              "code": "flagged-5d6f99da"
            }
          ],
          "security": [
            {
              "system": "http://terminology.hl7.org/CodeSystem/v3-Confidentiality",
              "code": "R"
            }
          ]
        }
      },
      "request": {
        "method": "POST",
        "url": "Patient"
      }
    },
    {
      "fullUrl": "urn:uuid:1d1b6938-ad16-498c-bd8c-60bdadfd1b8a",
      "resource": {
        "resourceType": "Patient",
        "active": false,
        "gender": "female",
        "birthDate": "2005-08-10",
        "name": [
          {
            "use": "official",
            "family": "Davis-5d6f99da",
            "given": [
              "Alice"
            ]
          }
        ],
        "identifier": [
          {
            "system": "http://example.com/mrn",
            "value": "MRN-004-5d6f99da"
          }
        ],
        "deceasedBoolean": false
      },
      "request": {
        "method": "POST",
        "url": "Patient"
      }
    },
    {
      "fullUrl": "urn:uuid:bc0ec62b-607a-4956-a6e0-0dc77a72284c",
      "resource": {
        "resourceType": "Patient",
        "active": true,
        "gender": "other",
        "birthDate": "2000-03-01",
        "name": [
          {
            "use": "official",
            "family": "Garcia-5d6f99da",
            "given": [
              "Alex",
              "M"
            ]
          }
        ],
        "identifier": [
          {
            "system": "http://example.com/mrn",
            "value": "MRN-005-5d6f99da"
          }
        ],
        "telecom": [
          {
            "system": "email",
            "value": "alex.garcia-5d6f99da@example.com"
          }
        ]
      },
      "request": {
        "method": "POST",
        "url": "Patient"
      }
    },
    {
      "fullUrl": "urn:uuid:87084614-73ca-498f-863c-756885bcc243",
      "resource": {
        "resourceType": "Patient",
        "active": true,
        "gender": "male",
        "birthDate": "1960-12-25",
        "name": [
          {
            "use": "official",
            "family": "Wilson-5d6f99da",
            "given": [
              "George"
            ]
          }
        ],
        "identifier": [
          {
            "system": "http://example.com/mrn",
            "value": "MRN-006-5d6f99da"
          }
        ],
        "deceasedDateTime": "2025-01-15T10:30:00Z"
      },
      "request": {
        "method": "POST",
        "url": "Patient"
      }
    },
    {
      "fullUrl": "urn:uuid:eb7a752a-fb96-4aad-bc6a-1808a0a7462a",
      "resource": {
        "resourceType": "Patient",
        "active": true,
        "gender": "female",
        "birthDate": "1995-07-04",
        "name": [
          {
            "use": "official",
            "family": "Martinez-5d6f99da",
            "given": [
              "Sofia",
              "Isabella"
            ]
          },
          {
            "use": "maiden",
            "family": "Lopez-5d6f99da"
          }
        ],
        "identifier": [
          {
            "system": "http://example.com/mrn",
            "value": "MRN-007-5d6f99da"
          },
          {
            "system": "http://example.com/passport",
            "value": "PP-007-5d6f99da"
          }
        ],
        "telecom": [
          {
            "system": "phone",
            "value": "555-1007",
            "use": "mobile"
          },
          {
            "system": "phone",
            "value": "555-1008",
            "use": "home"
          },
          {
            "system": "email",
            "value": "sofia-5d6f99da@example.com"
          }
        ],
        "address": [
          {
            "use": "home",
            "line": [
              "1000 Maple Dr"
            ],
            "city": "Capital City",
            "state": "CA",
            "postalCode": "90001",
            "country": "US"
          },
          {
            "use": "temp",
            "city": "TempCity",
            "state": "NY"
          }
        ],
        "contact": [
          {
            "relationship": [
              {
                "coding": [
                  {
                    "system": "http://terminology.hl7.org/CodeSystem/v2-0131",
                    "code": "N"
                  }
                ]
              }
            ],
            "name": {
              "family": "EmergencyContact-5d6f99da",
              "given": [
                "Carlos"
              ]
            },
            "telecom": [
              {
                "system": "phone",
                "value": "555-9999"
              }
            ]
          }
        ]
      },
      "request": {
        "method": "POST",
        "url": "Patient"
      }
    },
    {
      "fullUrl": "urn:uuid:72da7047-5025-4601-a498-e194711d8429",
      "resource": {
        "resourceType": "Encounter",
        "status": "finished",
        "class": {
          "system": "http://terminology.hl7.org/CodeSystem/v3-ActCode",
          "code": "AMB",
          "display": "Ambulatory-5d6f99da"
        },
        "subject": {
          "reference": "urn:uuid:ad9d1e8c-2ebe-4f9c-9c9b-3fd58589bc78"
        },
        "serviceProvider": {
          "reference": "urn:uuid:44194e81-3e3f-4164-ae54-d3814e533361"
        },
        "participant": [
          {
            "individual": {
              "reference": "urn:uuid:e135bec1-a656-47d8-bb23-fd1f348a747e"
            }
          }
        ],
        "period": {
          "start": "2025-01-10T08:00:00Z",
          "end": "2025-01-10T09:00:00Z"
        },
        "type": [
          {
            "coding": [
              {
                "system": "http://snomed.info/sct",
                "code": "308335008",
                "display": "OPD-5d6f99da"
              }
            ]
          }
        ]
      },
      "request": {
        "method": "POST",
        "url": "Encounter"
      }
    },
    {
      "fullUrl": "urn:uuid:39ccfb0e-0104-46f9-859f-cd39e452701e",
      "resource": {
        "resourceType": "Encounter",
        "status": "finished",
        "class": {
          "system": "http://terminology.hl7.org/CodeSystem/v3-ActCode",
          "code": "IMP"
        },
        "subject": {
          "reference": "urn:uuid:ad9d1e8c-2ebe-4f9c-9c9b-3fd58589bc78"
        },
        "serviceProvider": {
          "reference": "urn:uuid:44194e81-3e3f-4164-ae54-d3814e533361"
        },
        "period": {
          "start": "2025-02-01T10:00:00Z",
          "end": "2025-02-05T14:00:00Z"
        }
      },
      "request": {
        "method": "POST",
        "url": "Encounter"
      }
    },
    {
      "fullUrl": "urn:uuid:9f96ad27-ad4c-453b-a16f-085f1f6479bb",
      "resource": {
        "resourceType": "Encounter",
        "status": "finished",
        "class": {
          "system": "http://terminology.hl7.org/CodeSystem/v3-ActCode",
          "code": "AMB"
        },
        "subject": {
          "reference": "urn:uuid:2cea83d1-2c50-4de3-badd-cb45bce0959a"
        },
        "serviceProvider": {
          "reference": "urn:uuid:44194e81-3e3f-4164-ae54-d3814e533361"
        },
        "participant": [
          {
            "individual": {
              "reference": "urn:uuid:8ab34332-dd1d-4b2c-b395-e1bea6e14e51"
            }
          }
        ],
        "period": {
          "start": "2025-03-15T14:00:00Z"
        }
      },
      "request": {
        "method": "POST",
        "url": "Encounter"
      }
    },
    {
      "fullUrl": "urn:uuid:c5bb7393-081a-464d-b871-f03246f437e4",
      "resource": {
        "resourceType": "Encounter",
        "status": "in-progress",
        "class": {
          "system": "http://terminology.hl7.org/CodeSystem/v3-ActCode",
          "code": "EMER"
        },
        "subject": {
          "reference": "urn:uuid:15481d87-7741-4e7b-a2c5-d06b1a63ce63"
        },
        "serviceProvider": {
          "reference": "urn:uuid:44194e81-3e3f-4164-ae54-d3814e533361"
        },
        "period": {
          "start": "2026-02-25T10:00:00Z"
        }
      },
      "request": {
        "method": "POST",
        "url": "Encounter"
      }
    },
    {
      "fullUrl": "urn:uuid:77f032db-5f69-4148-adfb-1cba343e2b47",
      "resource": {
        "resourceType": "Encounter",
        "status": "planned",
        "class": {
          "system": "http://terminology.hl7.org/CodeSystem/v3-ActCode",
          "code": "AMB"
        },
        "subject": {
          "reference": "urn:uuid:1d1b6938-ad16-498c-bd8c-60bdadfd1b8a"
        },
        "period": {
          "start": "2026-03-01T09:00:00Z"
        }
      },
      "request": {
        "method": "POST",
        "url": "Encounter"
      }
    },
    {
      "fullUrl": "urn:uuid:2c58a7da-e551-4eab-a59c-9ae646cac03f",
      "resource": {
        "resourceType": "Encounter",
        "status": "finished",
        "class": {
          "system": "http://terminology.hl7.org/CodeSystem/v3-ActCode",
          "code": "AMB"
        },
        "subject": {
          "reference": "urn:uuid:eb7a752a-fb96-4aad-bc6a-1808a0a7462a"
        },
        "serviceProvider": {
          "reference": "urn:uuid:3407b715-cda4-4c1e-815c-7593453e8dbc"
        },
        "participant": [
          {
            "individual": {
              "reference": "urn:uuid:09a8986b-9193-4186-995e-9c9bedd749b5"
            }
          }
        ],
        "period": {
          "start": "2025-06-01T11:00:00Z",
          "end": "2025-06-01T12:00:00Z"
        }
      },
      "request": {
        "method": "POST",
        "url": "Encounter"
      }
    },
    {
      "fullUrl": "urn:uuid:a894942b-8da0-4bf2-b386-2181f1c9dece",
      "resource": {
        "resourceType": "Condition",
        "clinicalStatus": {
          "coding": [
            {
              "system": "http://terminology.hl7.org/CodeSystem/condition-clinical",
              "code": "active"
            }
          ]
        },
        "verificationStatus": {
          "coding": [
            {
              "system": "http://terminology.hl7.org/CodeSystem/condition-ver-status",
              "code": "confirmed"
            }
          ]
        },
        "code": {
          "coding": [
            {
              "system": "http://snomed.info/sct",
              "code": "44054006",
              "display": "Type2DM-5d6f99da"
            }
          ]
        },
        "subject": {
          "reference": "urn:uuid:ad9d1e8c-2ebe-4f9c-9c9b-3fd58589bc78"
        },
        "encounter": {
          "reference": "urn:uuid:72da7047-5025-4601-a498-e194711d8429"
        },
        "onsetDateTime": "2020-01-01"
      },
      "request": {
        "method": "POST",
        "url": "Condition"
      }
    },
    {
      "fullUrl": "urn:uuid:03fffab2-0a27-456c-96b4-796296919533",
      "resource": {
        "resourceType": "Condition",
        "clinicalStatus": {
          "coding": [
            {
              "system": "http://terminology.hl7.org/CodeSystem/condition-clinical",
              "code": "active"
            }
          ]
        },
        "verificationStatus": {
          "coding": [
            {
              "system": "http://terminology.hl7.org/CodeSystem/condition-ver-status",
              "code": "confirmed"
            }
          ]
        },
        "code": {
          "coding": [
            {
              "system": "http://snomed.info/sct",
              "code": "38341003",
              "display": "Hypertension-5d6f99da"
            }
          ]
        },
        "subject": {
          "reference": "urn:uuid:ad9d1e8c-2ebe-4f9c-9c9b-3fd58589bc78"
        },
        "onsetDateTime": "2018-06-15"
      },
      "request": {
        "method": "POST",
        "url": "Condition"
      }
    },
    {
      "fullUrl": "urn:uuid:ca7f45d7-4235-4ef1-ac63-1bd0e010e590",
      "resource": {
        "resourceType": "Condition",
        "clinicalStatus": {
          "coding": [
            {
              "system": "http://terminology.hl7.org/CodeSystem/condition-clinical",
              "code": "resolved"
            }
          ]
        },
        "code": {
          "coding": [
            {
              "system": "http://snomed.info/sct",
              "code": "195662009",
              "display": "Pneumonia-5d6f99da"
            }
          ]
        },
        "subject": {
          "reference": "urn:uuid:2cea83d1-2c50-4de3-badd-cb45bce0959a"
        },
        "encounter": {
          "reference": "urn:uuid:9f96ad27-ad4c-453b-a16f-085f1f6479bb"
        },
        "onsetDateTime": "2025-03-10",
        "abatementDateTime": "2025-03-25"
      },
      "request": {
        "method": "POST",
        "url": "Condition"
      }
    },
    {
      "fullUrl": "urn:uuid:65142241-d119-4a8e-af56-670c62ab14c2",
      "resource": {
        "resourceType": "Condition",
        "clinicalStatus": {
          "coding": [
            {
              "system": "http://terminology.hl7.org/CodeSystem/condition-clinical",
              "code": "active"
            }
          ]
        },
        "code": {
          "coding": [
            {
              "system": "http://snomed.info/sct",
              "code": "73211009",
              "display": "DiabetesI-5d6f99da"
            }
          ]
        },
        "subject": {
          "reference": "urn:uuid:15481d87-7741-4e7b-a2c5-d06b1a63ce63"
        },
        "onsetDateTime": "2010-05-01"
      },
      "request": {
        "method": "POST",
        "url": "Condition"
      }
    },
    {
      "fullUrl": "urn:uuid:f7cccbe9-9873-4660-b763-f58f0fcce31d",
      "resource": {
        "resourceType": "Condition",
        "clinicalStatus": {
          "coding": [
            {
              "system": "http://terminology.hl7.org/CodeSystem/condition-clinical",
              "code": "active"
            }
          ]
        },
        "code": {
          "coding": [
            {
              "system": "http://snomed.info/sct",
              "code": "195967001",
              "display": "Asthma-5d6f99da"
            }
          ]
        },
        "subject": {
          "reference": "urn:uuid:eb7a752a-fb96-4aad-bc6a-1808a0a7462a"
        },
        "encounter": {
          "reference": "urn:uuid:2c58a7da-e551-4eab-a59c-9ae646cac03f"
        },
        "onsetDateTime": "2015-08-20"
      },
      "request": {
        "method": "POST",
        "url": "Condition"
      }
    },
    {
      "fullUrl": "urn:uuid:dc565835-a87f-41ad-8691-e568a4fcee79",
      "resource": {
        "resourceType": "Observation",
        "status": "final",
        "code": {
          "coding": [
            {
              "system": "http://loinc.org",
              "code": "29463-7",
              "display": "BodyWeight-5d6f99da"
            }
          ]
        },
        "subject": {
          "reference": "urn:uuid:ad9d1e8c-2ebe-4f9c-9c9b-3fd58589bc78"
        },
        "encounter": {
          "reference": "urn:uuid:72da7047-5025-4601-a498-e194711d8429"
        },
        "valueQuantity": {
          "value": 75.5,
          "unit": "kg",
          "system": "http://unitsofmeasure.org",
          "code": "kg"
        },
        "effectiveDateTime": "2025-01-10T08:30:00Z",
        "category": [
          {
            "coding": [
              {
                "system": "http://terminology.hl7.org/CodeSystem/observation-category",
                "code": "vital-signs"
              }
            ]
          }
        ]
      },
      "request": {
        "method": "POST",
        "url": "Observation"
      }
    },
    {
      "fullUrl": "urn:uuid:0a5e4b03-aa6d-4193-88d0-6de7b54b280b",
      "resource": {
        "resourceType": "Observation",
        "status": "final",
        "code": {
          "coding": [
            {
              "system": "http://loinc.org",
              "code": "8867-4",
              "display": "HeartRate-5d6f99da"
            }
          ]
        },
        "subject": {
          "reference": "urn:uuid:ad9d1e8c-2ebe-4f9c-9c9b-3fd58589bc78"
        },
        "encounter": {
          "reference": "urn:uuid:72da7047-5025-4601-a498-e194711d8429"
        },
        "valueQuantity": {
          "value": 72,
          "unit": "/min",
          "system": "http://unitsofmeasure.org",
          "code": "/min"
        },
        "effectiveDateTime": "2025-01-10T08:30:00Z"
      },
      "request": {
        "method": "POST",
        "url": "Observation"
      }
    },
    {
      "fullUrl": "urn:uuid:e1eda0cf-9d76-4678-aaec-952634a7e4e5",
      "resource": {
        "resourceType": "Observation",
        "status": "final",
        "code": {
          "coding": [
            {
              "system": "http://loinc.org",
              "code": "85354-9",
              "display": "BP-5d6f99da"
            }
          ]
        },
        "subject": {
          "reference": "urn:uuid:ad9d1e8c-2ebe-4f9c-9c9b-3fd58589bc78"
        },
        "encounter": {
          "reference": "urn:uuid:39ccfb0e-0104-46f9-859f-cd39e452701e"
        },
        "component": [
          {
            "code": {
              "coding": [
                {
                  "system": "http://loinc.org",
                  "code": "8480-6"
                }
              ]
            },
            "valueQuantity": {
              "value": 120,
              "unit": "mmHg"
            }
          },
          {
            "code": {
              "coding": [
                {
                  "system": "http://loinc.org",
                  "code": "8462-4"
                }
              ]
            },
            "valueQuantity": {
              "value": 80,
              "unit": "mmHg"
            }
          }
        ],
        "effectiveDateTime": "2025-02-01T10:30:00Z"
      },
      "request": {
        "method": "POST",
        "url": "Observation"
      }
    },
    {
      "fullUrl": "urn:uuid:e29431d0-b641-4986-9a75-7350b780f612",
      "resource": {
        "resourceType": "Observation",
        "status": "final",
        "code": {
          "coding": [
            {
              "system": "http://loinc.org",
              "code": "2339-0",
              "display": "Glucose-5d6f99da"
            }
          ]
        },
        "subject": {
          "reference": "urn:uuid:2cea83d1-2c50-4de3-badd-cb45bce0959a"
        },
        "encounter": {
          "reference": "urn:uuid:9f96ad27-ad4c-453b-a16f-085f1f6479bb"
        },
        "valueQuantity": {
          "value": 95,
          "unit": "mg/dL"
        },
        "effectiveDateTime": "2025-03-15T14:30:00Z",
        "interpretation": [
          {
            "coding": [
              {
                "system": "http://terminology.hl7.org/CodeSystem/v3-ObservationInterpretation",
                "code": "N",
                "display": "Normal"
              }
            ]
          }
        ]
      },
      "request": {
        "method": "POST",
        "url": "Observation"
      }
    },
    {
      "fullUrl": "urn:uuid:cbe3f6e2-27a8-42af-b84f-46c34bc38537",
      "resource": {
        "resourceType": "Observation",
        "status": "final",
        "code": {
          "coding": [
            {
              "system": "http://loinc.org",
              "code": "718-7",
              "display": "Hemoglobin-5d6f99da"
            }
          ]
        },
        "subject": {
          "reference": "urn:uuid:15481d87-7741-4e7b-a2c5-d06b1a63ce63"
        },
        "valueQuantity": {
          "value": 14.2,
          "unit": "g/dL"
        },
        "effectiveDateTime": "2025-04-01"
      },
      "request": {
        "method": "POST",
        "url": "Observation"
      }
    },
    {
      "fullUrl": "urn:uuid:bc6f3f16-3367-4ef1-ae4f-cad3e4433d53",
      "resource": {
        "resourceType": "Observation",
        "status": "preliminary",
        "code": {
          "coding": [
            {
              "system": "http://loinc.org",
              "code": "6690-2",
              "display": "WBC-5d6f99da"
            }
          ]
        },
        "subject": {
          "reference": "urn:uuid:15481d87-7741-4e7b-a2c5-d06b1a63ce63"
        },
        "encounter": {
          "reference": "urn:uuid:c5bb7393-081a-464d-b871-f03246f437e4"
        },
        "valueQuantity": {
          "value": 8500,
          "unit": "/uL"
        },
        "effectiveDateTime": "2026-02-25T10:30:00Z"
      },
      "request": {
        "method": "POST",
        "url": "Observation"
      }
    },
    {
      "fullUrl": "urn:uuid:b256f3fd-d751-4087-ac0c-9f9c23984a7d",
      "resource": {
        "resourceType": "Observation",
        "status": "final",
        "code": {
          "coding": [
            {
              "system": "http://loinc.org",
              "code": "39156-5",
              "display": "BMI-5d6f99da"
            }
          ]
        },
        "subject": {
          "reference": "urn:uuid:eb7a752a-fb96-4aad-bc6a-1808a0a7462a"
        },
        "encounter": {
          "reference": "urn:uuid:2c58a7da-e551-4eab-a59c-9ae646cac03f"
        },
        "valueQuantity": {
          "value": 22.1,
          "unit": "kg/m2"
        },
        "effectiveDateTime": "2025-06-01T11:30:00Z"
      },
      "request": {
        "method": "POST",
        "url": "Observation"
      }
    },
    {
      "fullUrl": "urn:uuid:f78c50f7-cabb-4149-aa30-6a69f2e95a8b",
      "resource": {
        "resourceType": "Observation",
        "status": "final",
        "code": {
          "coding": [
            {
              "system": "http://loinc.org",
              "code": "8310-5",
              "display": "BodyTemp-5d6f99da"
            }
          ]
        },
        "subject": {
          "reference": "urn:uuid:eb7a752a-fb96-4aad-bc6a-1808a0a7462a"
        },
        "valueQuantity": {
          "value": 37.2,
          "unit": "Cel"
        },
        "effectiveDateTime": "2025-06-01T11:35:00Z"
      },
      "request": {
        "method": "POST",
        "url": "Observation"
      }
    },
    {
      "fullUrl": "urn:uuid:bedbcd61-7a57-48b4-a465-8e15004574a3",
      "resource": {
        "resourceType": "DiagnosticReport",
        "status": "final",
        "code": {
          "coding": [
            {
              "system": "http://loinc.org",
              "code": "58410-2",
              "display": "CBC-5d6f99da"
            }
          ]
        },
        "subject": {
          "reference": "urn:uuid:ad9d1e8c-2ebe-4f9c-9c9b-3fd58589bc78"
        },
        "encounter": {
          "reference": "urn:uuid:72da7047-5025-4601-a498-e194711d8429"
        },
        "result": [
          {
            "reference": "urn:uuid:dc565835-a87f-41ad-8691-e568a4fcee79"
          },
          {
            "reference": "urn:uuid:0a5e4b03-aa6d-4193-88d0-6de7b54b280b"
          }
        ],
        "effectiveDateTime": "2025-01-10T09:00:00Z",
        "issued": "2025-01-10T10:00:00Z"
      },
      "request": {
        "method": "POST",
        "url": "DiagnosticReport"
      }
    },
    {
      "fullUrl": "urn:uuid:24375209-d537-4c20-bd0e-1e7ef8bc0d58",
      "resource": {
        "resourceType": "DiagnosticReport",
        "status": "final",
        "code": {
          "coding": [
            {
              "system": "http://loinc.org",
              "code": "24323-8",
              "display": "CMP-5d6f99da"
            }
          ]
        },
        "subject": {
          "reference": "urn:uuid:ad9d1e8c-2ebe-4f9c-9c9b-3fd58589bc78"
        },
        "encounter": {
          "reference": "urn:uuid:39ccfb0e-0104-46f9-859f-cd39e452701e"
        },
        "result": [
          {
            "reference": "urn:uuid:e1eda0cf-9d76-4678-aaec-952634a7e4e5"
          }
        ],
        "effectiveDateTime": "2025-02-01T11:00:00Z"
      },
      "request": {
        "method": "POST",
        "url": "DiagnosticReport"
      }
    },
    {
      "fullUrl": "urn:uuid:3fd7a9e6-cc3b-4b9c-ad09-c89e8b4f7790",
      "resource": {
        "resourceType": "DiagnosticReport",
        "status": "final",
        "code": {
          "coding": [
            {
              "system": "http://loinc.org",
              "code": "2339-0",
              "display": "GlucoseReport-5d6f99da"
            }
          ]
        },
        "subject": {
          "reference": "urn:uuid:2cea83d1-2c50-4de3-badd-cb45bce0959a"
        },
        "result": [
          {
            "reference": "urn:uuid:e29431d0-b641-4986-9a75-7350b780f612"
          }
        ],
        "effectiveDateTime": "2025-03-15T15:00:00Z"
      },
      "request": {
        "method": "POST",
        "url": "DiagnosticReport"
      }
    },
    {
      "fullUrl": "urn:uuid:8b96feb8-2d2a-4aa7-afca-b78e7657e0f5",
      "resource": {
        "resourceType": "DiagnosticReport",
        "status": "preliminary",
        "code": {
          "coding": [
            {
              "system": "http://loinc.org",
              "code": "58410-2",
              "display": "CBC2-5d6f99da"
            }
          ]
        },
        "subject": {
          "reference": "urn:uuid:15481d87-7741-4e7b-a2c5-d06b1a63ce63"
        },
        "result": [
          {
            "reference": "urn:uuid:cbe3f6e2-27a8-42af-b84f-46c34bc38537"
          },
          {
            "reference": "urn:uuid:bc6f3f16-3367-4ef1-ae4f-cad3e4433d53"
          }
        ],
        "effectiveDateTime": "2026-02-25T11:00:00Z"
      },
      "request": {
        "method": "POST",
        "url": "DiagnosticReport"
      }
    },
    {
      "fullUrl": "urn:uuid:054746b9-8d24-4847-bb4b-73bbe4692e24",
      "resource": {
        "resourceType": "DiagnosticReport",
        "status": "final",
        "code": {
          "coding": [
            {
              "system": "http://loinc.org",
              "code": "55399-0",
              "display": "Vitals-5d6f99da"
            }
          ]
        },
        "subject": {
          "reference": "urn:uuid:eb7a752a-fb96-4aad-bc6a-1808a0a7462a"
        },
        "encounter": {
          "reference": "urn:uuid:2c58a7da-e551-4eab-a59c-9ae646cac03f"
        },
        "result": [
          {
            "reference": "urn:uuid:b256f3fd-d751-4087-ac0c-9f9c23984a7d"
          },
          {
            "reference": "urn:uuid:f78c50f7-cabb-4149-aa30-6a69f2e95a8b"
          }
        ],
        "effectiveDateTime": "2025-06-01T12:00:00Z"
      },
      "request": {
        "method": "POST",
        "url": "DiagnosticReport"
      }
    },
    {
      "fullUrl": "urn:uuid:f2694719-b170-450b-a4f2-4713e4bc1050",
      "resource": {
        "resourceType": "MedicationRequest",
        "status": "active",
        "intent": "order",
        "medicationReference": {
          "reference": "urn:uuid:37807247-170f-4126-8401-f983d65bbc9b"
        },
        "subject": {
          "reference": "urn:uuid:ad9d1e8c-2ebe-4f9c-9c9b-3fd58589bc78"
        },
        "encounter": {
          "reference": "urn:uuid:72da7047-5025-4601-a498-e194711d8429"
        },
        "requester": {
          "reference": "urn:uuid:e135bec1-a656-47d8-bb23-fd1f348a747e"
        },
        "authoredOn": "2025-01-10",
        "dosageInstruction": [
          {
            "text": "Take 500mg PRN-5d6f99da",
            "timing": {
              "repeat": {
                "frequency": 3,
                "period": 1,
                "periodUnit": "d"
              }
            }
          }
        ]
      },
      "request": {
        "method": "POST",
        "url": "MedicationRequest"
      }
    },
    {
      "fullUrl": "urn:uuid:ee3aa291-ce15-49dd-b089-a52d85d95a67",
      "resource": {
        "resourceType": "MedicationRequest",
        "status": "active",
        "intent": "order",
        "medicationReference": {
          "reference": "urn:uuid:41275f75-46ba-4bb4-bd10-5098e9ded31a"
        },
        "subject": {
          "reference": "urn:uuid:ad9d1e8c-2ebe-4f9c-9c9b-3fd58589bc78"
        },
        "requester": {
          "reference": "urn:uuid:e135bec1-a656-47d8-bb23-fd1f348a747e"
        },
        "authoredOn": "2025-02-01",
        "dosageInstruction": [
          {
            "text": "250mg TID-5d6f99da"
          }
        ]
      },
      "request": {
        "method": "POST",
        "url": "MedicationRequest"
      }
    },
    {
      "fullUrl": "urn:uuid:0135e91f-45ab-4344-a871-c463984cb557",
      "resource": {
        "resourceType": "MedicationRequest",
        "status": "active",
        "intent": "order",
        "medicationReference": {
          "reference": "urn:uuid:c71214b7-4529-411d-bc55-84fe0257b1ac"
        },
        "subject": {
          "reference": "urn:uuid:2cea83d1-2c50-4de3-badd-cb45bce0959a"
        },
        "requester": {
          "reference": "urn:uuid:8ab34332-dd1d-4b2c-b395-e1bea6e14e51"
        },
        "authoredOn": "2025-03-15"
      },
      "request": {
        "method": "POST",
        "url": "MedicationRequest"
      }
    },
    {
      "fullUrl": "urn:uuid:2b7c77a2-d43b-4c41-817b-1908c8b455df",
      "resource": {
        "resourceType": "MedicationRequest",
        "status": "stopped",
        "intent": "order",
        "medicationReference": {
          "reference": "urn:uuid:161d28d8-46da-445f-8fa0-caafd4ec28e7"
        },
        "subject": {
          "reference": "urn:uuid:15481d87-7741-4e7b-a2c5-d06b1a63ce63"
        },
        "requester": {
          "reference": "urn:uuid:fd6ca239-fb9b-4483-a26c-e2a2d927ee6d"
        },
        "authoredOn": "2025-04-01"
      },
      "request": {
        "method": "POST",
        "url": "MedicationRequest"
      }
    },
    {
      "fullUrl": "urn:uuid:8b0b3bdb-ba19-4102-a694-f41532e33869",
      "resource": {
        "resourceType": "MedicationRequest",
        "status": "active",
        "intent": "plan",
        "medicationReference": {
          "reference": "urn:uuid:6fcd16bf-8c43-464b-8503-844d0a39b6bc"
        },
        "subject": {
          "reference": "urn:uuid:eb7a752a-fb96-4aad-bc6a-1808a0a7462a"
        },
        "encounter": {
          "reference": "urn:uuid:2c58a7da-e551-4eab-a59c-9ae646cac03f"
        },
        "requester": {
          "reference": "urn:uuid:09a8986b-9193-4186-995e-9c9bedd749b5"
        },
        "authoredOn": "2025-06-01"
      },
      "request": {
        "method": "POST",
        "url": "MedicationRequest"
      }
    },
    {
      "fullUrl": "urn:uuid:37807247-170f-4126-8401-f983d65bbc9b",
      "resource": {
        "resourceType": "Medication",
        "code": {
          "coding": [
            {
              "system": "http://www.nlm.nih.gov/research/umls/rxnorm",
              "code": "1049502",
              "display": "Acetaminophen-5d6f99da"
            }
          ]
        },
        "status": "active"
      },
      "request": {
        "method": "POST",
        "url": "Medication"
      }
    },
    {
      "fullUrl": "urn:uuid:41275f75-46ba-4bb4-bd10-5098e9ded31a",
      "resource": {
        "resourceType": "Medication",
        "code": {
          "coding": [
            {
              "system": "http://www.nlm.nih.gov/research/umls/rxnorm",
              "code": "197361",
              "display": "Amoxicillin-5d6f99da"
            }
          ]
        },
        "status": "active",
        "manufacturer": {
          "reference": "urn:uuid:570bcc9c-c11c-4dd4-af7a-2f20b17c758d"
        }
      },
      "request": {
        "method": "POST",
        "url": "Medication"
      }
    },
    {
      "fullUrl": "urn:uuid:c71214b7-4529-411d-bc55-84fe0257b1ac",
      "resource": {
        "resourceType": "Medication",
        "code": {
          "coding": [
            {
              "system": "http://www.nlm.nih.gov/research/umls/rxnorm",
              "code": "310965",
              "display": "Lisinopril-5d6f99da"
            }
          ]
        },
        "status": "active"
      },
      "request": {
        "method": "POST",
        "url": "Medication"
      }
    },
    {
      "fullUrl": "urn:uuid:161d28d8-46da-445f-8fa0-caafd4ec28e7",
      "resource": {
        "resourceType": "Medication",
        "code": {
          "coding": [
            {
              "system": "http://www.nlm.nih.gov/research/umls/rxnorm",
              "code": "860975",
              "display": "Metformin-5d6f99da"
            }
          ]
        },
        "status": "active"
      },
      "request": {
        "method": "POST",
        "url": "Medication"
      }
    },
    {
      "fullUrl": "urn:uuid:6fcd16bf-8c43-464b-8503-844d0a39b6bc",
      "resource": {
        "resourceType": "Medication",
        "code": {
          "coding": [
            {
              "system": "http://www.nlm.nih.gov/research/umls/rxnorm",
              "code": "198440",
              "display": "Omeprazole-5d6f99da"
            }
          ]
        },
        "status": "inactive"
      },
      "request": {
        "method": "POST",
        "url": "Medication"
      }
    },
    {
      "fullUrl": "urn:uuid:987d3e47-478d-45df-9a57-05f95ba1566b",
      "resource": {
        "resourceType": "AllergyIntolerance",
        "clinicalStatus": {
          "coding": [
            {
              "system": "http://terminology.hl7.org/CodeSystem/allergyintolerance-clinical",
              "code": "active"
            }
          ]
        },
        "verificationStatus": {
          "coding": [
            {
              "system": "http://terminology.hl7.org/CodeSystem/allergyintolerance-verification",
              "code": "confirmed"
            }
          ]
        },
        "type": "allergy",
        "category": [
          "medication"
        ],
        "code": {
          "coding": [
            {
              "system": "http://snomed.info/sct",
              "code": "387458008",
              "display": "Aspirin-5d6f99da"
            }
          ]
        },
        "patient": {
          "reference": "urn:uuid:ad9d1e8c-2ebe-4f9c-9c9b-3fd58589bc78"
        },
        "onsetDateTime": "2015-01-01",
        "reaction": [
          {
            "manifestation": [
              {
                "coding": [
                  {
                    "system": "http://snomed.info/sct",
                    "code": "271807003",
                    "display": "Rash"
                  }
                ]
              }
            ],
            "severity": "moderate"
          }
        ]
      },
      "request": {
        "method": "POST",
        "url": "AllergyIntolerance"
      }
    },
    {
      "fullUrl": "urn:uuid:d5a0bd8e-306c-40bd-9e74-626a6787956e",
      "resource": {
        "resourceType": "AllergyIntolerance",
        "clinicalStatus": {
          "coding": [
            {
              "system": "http://terminology.hl7.org/CodeSystem/allergyintolerance-clinical",
              "code": "active"
            }
          ]
        },
        "type": "allergy",
        "category": [
          "food"
        ],
        "code": {
          "coding": [
            {
              "system": "http://snomed.info/sct",
              "code": "91935009",
              "display": "Peanut-5d6f99da"
            }
          ]
        },
        "patient": {
          "reference": "urn:uuid:ad9d1e8c-2ebe-4f9c-9c9b-3fd58589bc78"
        }
      },
      "request": {
        "method": "POST",
        "url": "AllergyIntolerance"
      }
    },
    {
      "fullUrl": "urn:uuid:b3598e69-9282-4691-b613-5d0ebc287891",
      "resource": {
        "resourceType": "AllergyIntolerance",
        "clinicalStatus": {
          "coding": [
            {
              "system": "http://terminology.hl7.org/CodeSystem/allergyintolerance-clinical",
              "code": "active"
            }
          ]
        },
        "type": "intolerance",
        "category": [
          "medication"
        ],
        "code": {
          "coding": [
            {
              "system": "http://snomed.info/sct",
              "code": "372687004",
              "display": "Penicillin-5d6f99da"
            }
          ]
        },
        "patient": {
          "reference": "urn:uuid:2cea83d1-2c50-4de3-badd-cb45bce0959a"
        }
      },
      "request": {
        "method": "POST",
        "url": "AllergyIntolerance"
      }
    },
    {
      "fullUrl": "urn:uuid:58d70fb6-1f4b-40d3-872b-388a43ab2611",
      "resource": {
        "resourceType": "AllergyIntolerance",
        "clinicalStatus": {
          "coding": [
            {
              "system": "http://terminology.hl7.org/CodeSystem/allergyintolerance-clinical",
              "code": "resolved"
            }
          ]
        },
        "code": {
          "coding": [
            {
              "system": "http://snomed.info/sct",
              "code": "264295007",
              "display": "Latex-5d6f99da"
            }
          ]
        },
        "patient": {
          "reference": "urn:uuid:15481d87-7741-4e7b-a2c5-d06b1a63ce63"
        }
      },
      "request": {
        "method": "POST",
        "url": "AllergyIntolerance"
      }
    },
    {
      "fullUrl": "urn:uuid:87055980-873b-47d0-8d0e-1fef254d1e79",
      "resource": {
        "resourceType": "AllergyIntolerance",
        "clinicalStatus": {
          "coding": [
            {
              "system": "http://terminology.hl7.org/CodeSystem/allergyintolerance-clinical",
              "code": "active"
            }
          ]
        },
        "type": "allergy",
        "category": [
          "environment"
        ],
        "code": {
          "coding": [
            {
              "system": "http://snomed.info/sct",
              "code": "256259004",
              "display": "Pollen-5d6f99da"
            }
          ]
        },
        "patient": {
          "reference": "urn:uuid:eb7a752a-fb96-4aad-bc6a-1808a0a7462a"
        }
      },
      "request": {
        "method": "POST",
        "url": "AllergyIntolerance"
      }
    },
    {
      "fullUrl": "urn:uuid:eba82ad8-2426-45d6-9301-28d406f9a96b",
      "resource": {
        "resourceType": "Procedure",
        "status": "completed",
        "code": {
          "coding": [
            {
              "system": "http://snomed.info/sct",
              "code": "80146002",
              "display": "Appendectomy-5d6f99da"
            }
          ]
        },
        "subject": {
          "reference": "urn:uuid:ad9d1e8c-2ebe-4f9c-9c9b-3fd58589bc78"
        },
        "encounter": {
          "reference": "urn:uuid:39ccfb0e-0104-46f9-859f-cd39e452701e"
        },
        "performedDateTime": "2025-02-03T14:00:00Z",
        "performer": [
          {
            "actor": {
              "reference": "urn:uuid:fd6ca239-fb9b-4483-a26c-e2a2d927ee6d"
            }
          }
        ]
      },
      "request": {
        "method": "POST",
        "url": "Procedure"
      }
    },
    {
      "fullUrl": "urn:uuid:db7f1cf6-0791-4b4a-a494-07d3f6d8ead6",
      "resource": {
        "resourceType": "Procedure",
        "status": "completed",
        "code": {
          "coding": [
            {
              "system": "http://snomed.info/sct",
              "code": "232717009",
              "display": "Coronography-5d6f99da"
            }
          ]
        },
        "subject": {
          "reference": "urn:uuid:ad9d1e8c-2ebe-4f9c-9c9b-3fd58589bc78"
        },
        "performedPeriod": {
          "start": "2025-02-04T08:00:00Z",
          "end": "2025-02-04T10:00:00Z"
        }
      },
      "request": {
        "method": "POST",
        "url": "Procedure"
      }
    },
    {
      "fullUrl": "urn:uuid:122d2f9b-f05f-452c-9484-1d66eea6960f",
      "resource": {
        "resourceType": "Procedure",
        "status": "completed",
        "code": {
          "coding": [
            {
              "system": "http://snomed.info/sct",
              "code": "36969009",
              "display": "BloodDraw-5d6f99da"
            }
          ]
        },
        "subject": {
          "reference": "urn:uuid:2cea83d1-2c50-4de3-badd-cb45bce0959a"
        },
        "encounter": {
          "reference": "urn:uuid:9f96ad27-ad4c-453b-a16f-085f1f6479bb"
        },
        "performedDateTime": "2025-03-15T14:15:00Z"
      },
      "request": {
        "method": "POST",
        "url": "Procedure"
      }
    },
    {
      "fullUrl": "urn:uuid:0b958d49-f32a-4f68-9fda-532fffda9351",
      "resource": {
        "resourceType": "Procedure",
        "status": "in-progress",
        "code": {
          "coding": [
            {
              "system": "http://snomed.info/sct",
              "code": "418891003",
              "display": "Dressing-5d6f99da"
            }
          ]
        },
        "subject": {
          "reference": "urn:uuid:15481d87-7741-4e7b-a2c5-d06b1a63ce63"
        },
        "encounter": {
          "reference": "urn:uuid:c5bb7393-081a-464d-b871-f03246f437e4"
        },
        "performedDateTime": "2026-02-25T11:00:00Z"
      },
      "request": {
        "method": "POST",
        "url": "Procedure"
      }
    },
    {
      "fullUrl": "urn:uuid:96d3acfa-db14-42af-a0e4-c9796b5ce5cc",
      "resource": {
        "resourceType": "Procedure",
        "status": "completed",
        "code": {
          "coding": [
            {
              "system": "http://snomed.info/sct",
              "code": "274025005",
              "display": "EKG-5d6f99da"
            }
          ]
        },
        "subject": {
          "reference": "urn:uuid:eb7a752a-fb96-4aad-bc6a-1808a0a7462a"
        },
        "encounter": {
          "reference": "urn:uuid:2c58a7da-e551-4eab-a59c-9ae646cac03f"
        },
        "performedDateTime": "2025-06-01T11:45:00Z"
      },
      "request": {
        "method": "POST",
        "url": "Procedure"
      }
    },
    {
      "fullUrl": "urn:uuid:1d9fa7fd-78aa-4785-9c3c-c2ab5f8667bc",
      "resource": {
        "resourceType": "ServiceRequest",
        "status": "active",
        "intent": "order",
        "code": {
          "coding": [
            {
              "system": "http://snomed.info/sct",
              "code": "26604007",
              "display": "FBC-5d6f99da"
            }
          ]
        },
        "subject": {
          "reference": "urn:uuid:ad9d1e8c-2ebe-4f9c-9c9b-3fd58589bc78"
        },
        "encounter": {
          "reference": "urn:uuid:72da7047-5025-4601-a498-e194711d8429"
        },
        "requester": {
          "reference": "urn:uuid:e135bec1-a656-47d8-bb23-fd1f348a747e"
        },
        "authoredOn": "2025-01-10"
      },
      "request": {
        "method": "POST",
        "url": "ServiceRequest"
      }
    },
    {
      "fullUrl": "urn:uuid:741041ca-b392-4f17-8347-371a5226c89a",
      "resource": {
        "resourceType": "ServiceRequest",
        "status": "completed",
        "intent": "order",
        "code": {
          "coding": [
            {
              "system": "http://snomed.info/sct",
              "code": "77477000",
              "display": "CTScan-5d6f99da"
            }
          ]
        },
        "subject": {
          "reference": "urn:uuid:ad9d1e8c-2ebe-4f9c-9c9b-3fd58589bc78"
        },
        "encounter": {
          "reference": "urn:uuid:39ccfb0e-0104-46f9-859f-cd39e452701e"
        },
        "authoredOn": "2025-02-01"
      },
      "request": {
        "method": "POST",
        "url": "ServiceRequest"
      }
    },
    {
      "fullUrl": "urn:uuid:66258b66-12ed-431a-97f5-b6166455b08b",
      "resource": {
        "resourceType": "ServiceRequest",
        "status": "active",
        "intent": "order",
        "code": {
          "coding": [
            {
              "system": "http://snomed.info/sct",
              "code": "104001",
              "display": "Excision-5d6f99da"
            }
          ]
        },
        "subject": {
          "reference": "urn:uuid:2cea83d1-2c50-4de3-badd-cb45bce0959a"
        },
        "authoredOn": "2025-03-15"
      },
      "request": {
        "method": "POST",
        "url": "ServiceRequest"
      }
    },
    {
      "fullUrl": "urn:uuid:52eda2f5-cbdc-4c59-a738-b9c4f0b94703",
      "resource": {
        "resourceType": "ServiceRequest",
        "status": "active",
        "intent": "order",
        "code": {
          "coding": [
            {
              "system": "http://snomed.info/sct",
              "code": "252275004",
              "display": "Imaging-5d6f99da"
            }
          ]
        },
        "subject": {
          "reference": "urn:uuid:15481d87-7741-4e7b-a2c5-d06b1a63ce63"
        },
        "encounter": {
          "reference": "urn:uuid:c5bb7393-081a-464d-b871-f03246f437e4"
        },
        "authoredOn": "2026-02-25"
      },
      "request": {
        "method": "POST",
        "url": "ServiceRequest"
      }
    },
    {
      "fullUrl": "urn:uuid:37b3c31d-6207-4763-884d-72d08fe57341",
      "resource": {
        "resourceType": "ServiceRequest",
        "status": "active",
        "intent": "plan",
        "code": {
          "coding": [
            {
              "system": "http://snomed.info/sct",
              "code": "409063005",
              "display": "Counseling-5d6f99da"
            }
          ]
        },
        "subject": {
          "reference": "urn:uuid:eb7a752a-fb96-4aad-bc6a-1808a0a7462a"
        },
        "authoredOn": "2025-06-01"
      },
      "request": {
        "method": "POST",
        "url": "ServiceRequest"
      }
    },
    {
      "fullUrl": "urn:uuid:c700eb95-ad48-4a09-afaa-92cb74c39b27",
      "resource": {
        "resourceType": "CarePlan",
        "status": "active",
        "intent": "plan",
        "title": "DM Management-5d6f99da",
        "subject": {
          "reference": "urn:uuid:ad9d1e8c-2ebe-4f9c-9c9b-3fd58589bc78"
        },
        "encounter": {
          "reference": "urn:uuid:72da7047-5025-4601-a498-e194711d8429"
        },
        "addresses": [
          {
            "reference": "urn:uuid:a894942b-8da0-4bf2-b386-2181f1c9dece"
          }
        ],
        "category": [
          {
            "coding": [
              {
                "system": "http://hl7.org/fhir/us/core/CodeSystem/careplan-category",
                "code": "assess-plan"
              }
            ]
          }
        ]
      },
      "request": {
        "method": "POST",
        "url": "CarePlan"
      }
    },
    {
      "fullUrl": "urn:uuid:4d743621-304c-46ac-af81-7e57be102aab",
      "resource": {
        "resourceType": "CarePlan",
        "status": "active",
        "intent": "plan",
        "title": "HTN Management-5d6f99da",
        "subject": {
          "reference": "urn:uuid:ad9d1e8c-2ebe-4f9c-9c9b-3fd58589bc78"
        },
        "addresses": [
          {
            "reference": "urn:uuid:03fffab2-0a27-456c-96b4-796296919533"
          }
        ]
      },
      "request": {
        "method": "POST",
        "url": "CarePlan"
      }
    },
    {
      "fullUrl": "urn:uuid:c821805c-fe3b-4545-8769-6b7b2d4c69fb",
      "resource": {
        "resourceType": "CarePlan",
        "status": "completed",
        "intent": "plan",
        "title": "Pneumonia Recovery-5d6f99da",
        "subject": {
          "reference": "urn:uuid:2cea83d1-2c50-4de3-badd-cb45bce0959a"
        },
        "addresses": [
          {
            "reference": "urn:uuid:ca7f45d7-4235-4ef1-ac63-1bd0e010e590"
          }
        ]
      },
      "request": {
        "method": "POST",
        "url": "CarePlan"
      }
    },
    {
      "fullUrl": "urn:uuid:eee15ef4-79eb-4d7a-a445-bafe836056e8",
      "resource": {
        "resourceType": "CarePlan",
        "status": "active",
        "intent": "plan",
        "title": "DM1 Care-5d6f99da",
        "subject": {
          "reference": "urn:uuid:15481d87-7741-4e7b-a2c5-d06b1a63ce63"
        },
        "addresses": [
          {
            "reference": "urn:uuid:65142241-d119-4a8e-af56-670c62ab14c2"
          }
        ]
      },
      "request": {
        "method": "POST",
        "url": "CarePlan"
      }
    },
    {
      "fullUrl": "urn:uuid:f5984f4e-8ba7-4325-8688-b36a74c56a68",
      "resource": {
        "resourceType": "CarePlan",
        "status": "active",
        "intent": "plan",
        "title": "Asthma Action-5d6f99da",
        "subject": {
          "reference": "urn:uuid:eb7a752a-fb96-4aad-bc6a-1808a0a7462a"
        },
        "encounter": {
          "reference": "urn:uuid:2c58a7da-e551-4eab-a59c-9ae646cac03f"
        },
        "addresses": [
          {
            "reference": "urn:uuid:f7cccbe9-9873-4660-b763-f58f0fcce31d"
          }
        ]
      },
      "request": {
        "method": "POST",
        "url": "CarePlan"
      }
    },
    {
      "fullUrl": "urn:uuid:079e31c1-bc96-4905-8184-ddfa27cc8ab7",
      "resource": {
        "resourceType": "Immunization",
        "status": "completed",
        "vaccineCode": {
          "coding": [
            {
              "system": "http://hl7.org/fhir/sid/cvx",
              "code": "208",
              "display": "COVID19-5d6f99da"
            }
          ]
        },
        "patient": {
          "reference": "urn:uuid:ad9d1e8c-2ebe-4f9c-9c9b-3fd58589bc78"
        },
        "occurrenceDateTime": "2025-01-15T09:00:00Z",
        "encounter": {
          "reference": "urn:uuid:72da7047-5025-4601-a498-e194711d8429"
        }
      },
      "request": {
        "method": "POST",
        "url": "Immunization"
      }
    },
    {
      "fullUrl": "urn:uuid:b548ac38-de33-42be-bdf7-57c491db00e7",
      "resource": {
        "resourceType": "Immunization",
        "status": "completed",
        "vaccineCode": {
          "coding": [
            {
              "system": "http://hl7.org/fhir/sid/cvx",
              "code": "141",
              "display": "Influenza-5d6f99da"
            }
          ]
        },
        "patient": {
          "reference": "urn:uuid:ad9d1e8c-2ebe-4f9c-9c9b-3fd58589bc78"
        },
        "occurrenceDateTime": "2025-10-01"
      },
      "request": {
        "method": "POST",
        "url": "Immunization"
      }
    },
    {
      "fullUrl": "urn:uuid:1ae4f20d-f60a-47f3-a7ec-8197fe94c31e",
      "resource": {
        "resourceType": "Immunization",
        "status": "completed",
        "vaccineCode": {
          "coding": [
            {
              "system": "http://hl7.org/fhir/sid/cvx",
              "code": "08",
              "display": "HepB-5d6f99da"
            }
          ]
        },
        "patient": {
          "reference": "urn:uuid:2cea83d1-2c50-4de3-badd-cb45bce0959a"
        },
        "occurrenceDateTime": "2025-04-01"
      },
      "request": {
        "method": "POST",
        "url": "Immunization"
      }
    },
    {
      "fullUrl": "urn:uuid:bb574eb1-4c7f-4ab1-9d3c-22b4b77d2220",
      "resource": {
        "resourceType": "Immunization",
        "status": "not-done",
        "vaccineCode": {
          "coding": [
            {
              "system": "http://hl7.org/fhir/sid/cvx",
              "code": "03",
              "display": "MMR-5d6f99da"
            }
          ]
        },
        "patient": {
          "reference": "urn:uuid:1d1b6938-ad16-498c-bd8c-60bdadfd1b8a"
        },
        "occurrenceDateTime": "2025-05-01",
        "statusReason": {
          "coding": [
            {
              "system": "http://terminology.hl7.org/CodeSystem/v3-ActReason",
              "code": "MEDPREC"
            }
          ]
        }
      },
      "request": {
        "method": "POST",
        "url": "Immunization"
      }
    },
    {
      "fullUrl": "urn:uuid:1036cd17-3d52-4107-96cb-28fd0f0e5660",
      "resource": {
        "resourceType": "Immunization",
        "status": "completed",
        "vaccineCode": {
          "coding": [
            {
              "system": "http://hl7.org/fhir/sid/cvx",
              "code": "113",
              "display": "Tdap-5d6f99da"
            }
          ]
        },
        "patient": {
          "reference": "urn:uuid:eb7a752a-fb96-4aad-bc6a-1808a0a7462a"
        },
        "occurrenceDateTime": "2025-06-01",
        "encounter": {
          "reference": "urn:uuid:2c58a7da-e551-4eab-a59c-9ae646cac03f"
        }
      },
      "request": {
        "method": "POST",
        "url": "Immunization"
      }
    }
  ]
}