{
  "resourceType": "Bundle",
  "type": "transaction",
  "entry": [
    {
      "fullUrl": "urn:uuid:daa5c6b3-79ae-48f1-96fa-b68f32ce410d",
      "resource": {
        "resourceType": "Organization",
        "name": "Central Hospital-0645c965",
        "identifier": [
          {
            "system": "http://example.com/org",
            "value": "ORG-001-0645c965"
          }
        ],
        "type": [
          {
            "coding": [
              {
                "system": "http://terminology.hl7.org/CodeSystem/organization-type",
                "code": "prov"
              }
            ]
          }
        ],
        "telecom": [
          {
            "system": "phone",
            "value": "555-0100"
          }
        ],
        "address": [
          {
            "line": [
              "100 Main St"
            ],
            "city": "Springfield",
            "state": "IL",
            "postalCode": "62701",
            "country": "US"
          }
        ]
      },
      "request": {
        "method": "POST",
        "url": "Organization"
      }
    },
    {
      "fullUrl": "urn:uuid:971ad003-85e2-481c-9571-0c3fb3e1f66f",
      "resource": {
        "resourceType": "Organization",
        "name": "East Wing Lab-0645c965",
        "identifier": [
          {
            "system": "http://example.com/org",
            "value": "ORG-002-0645c965"
          }
        ],
        "type": [
          {
            "coding": [
              {
                "system": "http://terminology.hl7.org/CodeSystem/organization-type",
                "code": "dept"
              }
            ]
          }
        ]
      },
      "request": {
        "method": "POST",
        "url": "Organization"
      }
    },
    {
      "fullUrl": "urn:uuid:1d39a9be-7858-44cc-8aaf-beaa717f56df",
      "resource": {
        "resourceType": "Organization",
        "name": "Pharmacy Services-0645c965",
        "identifier": [
          {
            "system": "http://example.com/org",
            "value": "ORG-003-0645c965"
          }
        ]
      },
      "request": {
        "method": "POST",
        "url": "Organization"
      }
    },
    {
      "fullUrl": "urn:uuid:12d86180-8425-4064-bfe4-82cac8d04aef",
      "resource": {
        "resourceType": "Organization",
        "name": "Insurance Corp-0645c965",
        "identifier": [
          {
            "system": "http://example.com/org",
            "value": "ORG-004-0645c965"
          }
        ],
        "type": [
          {
            "coding": [
              {
                "system": "http://terminology.hl7.org/CodeSystem/organization-type",
                "code": "ins"
              }
            ]
          }
        ]
      },
      "request": {
        "method": "POST",
        "url": "Organization"
      }
    },
    {
      "fullUrl": "urn:uuid:7b72167f-9958-4549-bfb2-935e8583104e",
      "resource": {
        "resourceType": "Organization",
        "name": "Specialty Clinic-0645c965",
        "identifier": [
          {
            "system": "http://example.com/org",
            "value": "ORG-005-0645c965"
          }
        ],
        "address": [
          {
            "line": [
              "200 Oak Ave"
            ],
            "city": "Shelbyville",
            "state": "IL",
            "postalCode": "62702",
            "country": "US"
          }
        ]
      },
      "request": {
        "method": "POST",
        "url": "Organization"
      }
    },
    {
      "fullUrl": "urn:uuid:6445cd74-72ba-4bac-b55e-3ffb19c7b65e",
      "resource": {
        "resourceType": "Practitioner",
        "name": [
          {
            "family": "Smith-0645c965",
            "given": [
              "John",
              "A"
            ],
            "prefix": [
              "Dr."
            ]
          }
        ],
        "identifier": [
          {
            "system": "http://example.com/npi",
            "value": "NPI-001-0645c965"
          }
        ],
        "gender": "male",
        "birthDate": "1975-03-15",
        "telecom": [
          {
            "system": "email",
            "value": "john.smith-0645c965@hospital.com"
          }
        ],
        "address": [
          {
            "line": [
              "100 Main St"
            ],
            "city": "Springfield",
            "state": "IL",
            "postalCode": "62701",
            "country": "US"
          }
        ]
      },
      "request": {
        "method": "POST",
        "url": "Practitioner"
      }
    },
    {
      "fullUrl": "urn:uuid:79e0445a-6136-407e-95be-304871c664af",
      "resource": {
        "resourceType": "Practitioner",
        "name": [
          {
            "family": "Johnson-0645c965",
            "given": [
              "Emily"
            ]
          }
        ],
        "identifier": [
          {
            "system": "http://example.com/npi",
            "value": "NPI-002-0645c965"
          }
        ],
        "gender": "female"
      },
      "request": {
        "method": "POST",
        "url": "Practitioner"
      }
    },
    {
      "fullUrl": "urn:uuid:9ac109fb-fbed-48eb-8d77-6ee101e21418",
      "resource": {
        "resourceType": "Practitioner",
        "name": [
          {
            "family": "Williams-0645c965",
            "given": [
              "Robert"
            ]
          }
        ],
        "identifier": [
          {
            "system": "http://example.com/npi",
            "value": "NPI-003-0645c965"
          }
        ],
        "gender": "male"
      },
      "request": {
        "method": "POST",
        "url": "Practitioner"
      }
    },
    {
      "fullUrl": "urn:uuid:78a104a6-32d7-4b4f-82b2-5fec0f6af4d1",
      "resource": {
        "resourceType": "Practitioner",
        "name": [
          {
            "family": "Brown-0645c965",
            "given": [
              "Sarah"
            ]
          }
        ],
        "identifier": [
          {
            "system": "http://example.com/npi",
            "value": "NPI-004-0645c965"
          }
        ],
        "gender": "female"
      },
      "request": {
        "method": "POST",
        "url": "Practitioner"
      }
    },
    {
      "fullUrl": "urn:uuid:178c0c9d-83dd-4a3e-9fb3-b8626a399c5a",
      "resource": {
        "resourceType": "Practitioner",
        "name": [
          {
            "family": "Davis-0645c965",
            "given": [
              "Michael",
              "J"
            ]
          }
        ],
        "identifier": [
          {
            "system": "http://example.com/npi",
            "value": "NPI-005-0645c965"
          }
        ],
        "gender": "male",
        "telecom": [
          {
            "system": "phone",
            "value": "555-0200"
          },
          {
            "system": "email",
            "value": "michael.davis-0645c965@hospital.com"
          }
        ]
      },
      "request": {
        "method": "POST",
        "url": "Practitioner"
      }
    },
    {
      "fullUrl": "urn:uuid:c46b70d7-ab28-4538-a45b-a02ca7a50771",
      "resource": {
        "resourceType": "PractitionerRole",
        "practitioner": {
          "reference": "urn:uuid:6445cd74-72ba-4bac-b55e-3ffb19c7b65e"
        },
        "organization": {
          "reference": "urn:uuid:daa5c6b3-79ae-48f1-96fa-b68f32ce410d"
        },
        "code": [
          {
            "coding": [
              {
                "system": "http://snomed.info/sct",
                "code": "59058001",
                "display": "GP-0645c965"
              }
            ]
          }
        ],
        "active": true
      },
      "request": {
        "method": "POST",
        "url": "PractitionerRole"
      }
    },
    {
      "fullUrl": "urn:uuid:62f154c8-bd83-4432-bd44-3c503a5c71b6",
      "resource": {
        "resourceType": "PractitionerRole",
        "practitioner": {
          "reference": "urn:uuid:79e0445a-6136-407e-95be-304871c664af"
        },
        "organization": {
          "reference": "urn:uuid:971ad003-85e2-481c-9571-0c3fb3e1f66f"
        },
        "code": [
          {
            "coding": [
              {
                "system": "http://snomed.info/sct",
                "code": "61246008",
                "display": "Lab-0645c965"
              }
            ]
          }
        ]
      },
      "request": {
        "method": "POST",
        "url": "PractitionerRole"
      }
    },
    {
      "fullUrl": "urn:uuid:6a93a54a-1a38-4bb0-9693-132ea4d7e445",
      "resource": {
        "resourceType": "PractitionerRole",
        "practitioner": {
          "reference": "urn:uuid:9ac109fb-fbed-48eb-8d77-6ee101e21418"
        },
        "organization": {
          "reference": "urn:uuid:daa5c6b3-79ae-48f1-96fa-b68f32ce410d"
        },
        "code": [
          {
            "coding": [
              {
                "system": "http://snomed.info/sct",
                "code": "304292004",
                "display": "Surgeon-0645c965"
              }
            ]
          }
        ]
      },
      "request": {
        "method": "POST",
        "url": "PractitionerRole"
      }
    },
    {
      "fullUrl": "urn:uuid:68add41e-21c6-436b-b076-be704936055d",
      "resource": {
        "resourceType": "PractitionerRole",
        "practitioner": {
          "reference": "urn:uuid:78a104a6-32d7-4b4f-82b2-5fec0f6af4d1"
        },
        "organization": {
          "reference": "urn:uuid:1d39a9be-7858-44cc-8aaf-beaa717f56df"
        },
        "code": [
          {
            "coding": [
              {
                "system": "http://snomed.info/sct",
                "code": "46255001",
                "display": "Pharmacist-0645c965"
              }
            ]
          }
        ]
      },
      "request": {
        "method": "POST",
        "url": "PractitionerRole"
      }
    },
    {
      "fullUrl": "urn:uuid:56bb4c4e-b0ee-4c8e-883f-29b3b895cfd4",
      "resource": {
        "resourceType": "PractitionerRole",
        "practitioner": {
          "reference": "urn:uuid:178c0c9d-83dd-4a3e-9fb3-b8626a399c5a"
        },
        "organization": {
          "reference": "urn:uuid:7b72167f-9958-4549-bfb2-935e8583104e"
        },
        "code": [
          {
            "coding": [
              {
                "system": "http://snomed.info/sct",
                "code": "309343006",
                "display": "Specialist-0645c965"
              }
            ]
          }
        ]
      },
      "request": {
        "method": "POST",
        "url": "PractitionerRole"
      }
    },
    {
      "fullUrl": "urn:uuid:b8ecfa2d-8c9d-4eb4-8bf8-8259e2a0b01c",
      "resource": {
        "resourceType": "Patient",
        "active": true,
        "gender": "male",
        "birthDate": "1985-06-15",
        "name": [
          {
            "use": "official",
            "family": "Doe-0645c965",
            "given": [
              "John",
              "Michael"
            ]
          },
          {
            "use": "nickname",
            "given": [
              "Johnny"
            ]
          }
        ],
        "identifier": [
          {
            "system": "http://example.com/mrn",
            "value": "MRN-001-0645c965"
          },
          {
            "system": "http://example.com/ssn",
            "value": "SSN-001-0645c965"
          }
        ],
        "telecom": [
          {
            "system": "phone",
            "value": "555-1001",
            "use": "home"
          },
          {
            "system": "email",
            "value": "john.doe-0645c965@example.com",
            "use": "work"
          }
        ],
        "address": [
          {
            "use": "home",
            "line": [
              "123 Elm St",
              "Apt 4B"
            ],
            "city": "Springfield",
            "state": "IL",
            "postalCode": "62701",
            "country": "US"
          }
        ],
        "managingOrganization": {
          "reference": "urn:uuid:daa5c6b3-79ae-48f1-96fa-b68f32ce410d"
        },
        "generalPractitioner": [
          {
            "reference": "urn:uuid:6445cd74-72ba-4bac-b55e-3ffb19c7b65e"
          }
        ],
        "meta": {
          "tag": [
            {
              "system": "http://example.com/tags",
              "code": "vip-0645c965"
            }
          ]
        },
        "maritalStatus": {
          "coding": [
            {
              "system": "http://terminology.hl7.org/CodeSystem/v3-MaritalStatus",
              "code": "M",
              "display": "Married"
            }
          ]
        },
        "communication": [
          {
            "language": {
              "coding": [
                {
                  "system": "urn:ietf:bcp:47",
                  "code": "en"
                }
              ]
            }
          }
        ]
      },
      "request": {
        "method": "POST",
        "url": "Patient"
      }
    },
    {
      "fullUrl": "urn:uuid:cde13945-dfac-49aa-bcb4-fec3ff6b3bf4",
      "resource": {
        "resourceType": "Patient",
        "active": true,
        "gender": "female",
        "birthDate": "1990-11-22",
        "name": [
          {
            "use": "official",
            "family": "Smith-0645c965",
            "given": [
              "Jane",
              "Elizabeth"
            ]
          }
        ],
        "identifier": [
          {
            "system": "http://example.com/mrn",
            "value": "MRN-002-0645c965"
          }
        ],
        "telecom": [
          {
            "system": "phone",
            "value": "555-1002"
          }
        ],
        "address": [
          {
            "use": "home",
            "line": [
              "456 Oak Ave"
            ],
            "city": "Chicago",
            "state": "IL",
            "postalCode": "60601",
            "country": "US"
          }
        ],
        "managingOrganization": {
          "reference": "urn:uuid:daa5c6b3-79ae-48f1-96fa-b68f32ce410d"
        }
      },
      "request": {
        "method": "POST",
        "url": "Patient"
      }
    },
    {
      "fullUrl": "urn:uuid:4e8b2ea0-d1bc-40db-ba65-a269f931b4a0",
      "resource": {
        "resourceType": "Patient",
        "active": true,
        "gender": "male",
        "birthDate": "1978-01-30",
        "name": [
          {
            "use": "official",
            "family": "Williams-0645c965",
            "given": [
              "Robert"
            ]
          }
        ],
        "identifier": [
          {
            "system": "http://example.com/mrn",
            "value": "MRN-003-0645c965"
          }
        ],
        "address": [
          {
            "line": [
              "789 Pine Rd"
            ],
            "city": "Shelbyville",
            "state": "IL",
            "postalCode": "62702",
            "country": "US"
          },
          {
            "use": "work",
            "line": [
              "100 Main St"
            ],
            "city": "Springfield",
            "state": "IL"
          }
        ],
        "generalPractitioner": [
          {
            "reference": "urn:uuid:9ac109fb-fbed-48eb-8d77-6ee101e21418"
          }
        ],
        "meta": {
          "tag": [
            {
              "system": "http://example.com/tags",
              "code": "urgent-0645c965"
            },
            {
              "system": "http://example.com/tags",
              "code": "flagged-0645c965"
            }
          ],
          "security": [
            {
              "system": "http://terminology.hl7.org/CodeSystem/v3-Confidentiality",
              "code": "R"
            }
          ]
        }
      },
      "request": {
        "method": "POST",
        "url": "Patient"
      }
    },
    {
      "fullUrl": "urn:uuid:8bb2e07c-05da-43a4-9ab5-dce122d7730e",
      "resource": {
        "resourceType": "Patient",
        "active": false,
        "gender": "female",
        "birthDate": "2005-08-10",
        "name": [
          {
            "use": "official",
            "family": "Davis-0645c965",
            "given": [
              "Alice"
            ]
          }
        ],
        "identifier": [
          {
            "system": "http://example.com/mrn",
            "value": "MRN-004-0645c965"
          }
        ],
        "deceasedBoolean": false
      },
      "request": {
        "method": "POST",
        "url": "Patient"
      }
    },
    {
      "fullUrl": "urn:uuid:79c84344-c135-48f0-8dea-e99facfd1bdb",
      "resource": {
        "resourceType": "Patient",
        "active": true,
        "gender": "other",
        "birthDate": "2000-03-01",
        "name": [
          {
            "use": "official",
            "family": "Garcia-0645c965",
            "given": [
              "Alex",
              "M"
            ]
          }
        ],
        "identifier": [
          {
            "system": "http://example.com/mrn",
            "value": "MRN-005-0645c965"
          }
        ],
        "telecom": [
          {
            "system": "email",
            "value": "alex.garcia-0645c965@example.com"
          }
        ]
      },
      "request": {
        "method": "POST",
        "url": "Patient"
      }
    },
    {
      "fullUrl": "urn:uuid:80ce20e8-2bee-4f63-9b7f-223c8ffe3349",
      "resource": {
        "resourceType": "Patient",
        "active": true,
        "gender": "male",
        "birthDate": "1960-12-25",
        "name": [
          {
            "use": "official",
            "family": "Wilson-0645c965",
            "given": [
              "George"
            ]
          }
        ],
        "identifier": [
          {
            "system": "http://example.com/mrn",
            "value": "MRN-006-0645c965"
          }
        ],
        "deceasedDateTime": "2025-01-15T10:30:00Z"
      },
      "request": {
        "method": "POST",
        "url": "Patient"
      }
    },
    {
      "fullUrl": "urn:uuid:6a40c6b0-23fd-4933-ac02-7373e527abfd",
      "resource": {
        "resourceType": "Patient",
        "active": true,
        "gender": "female",
        "birthDate": "1995-07-04",
        "name": [
          {
            "use": "official",
            "family": "Martinez-0645c965",
            "given": [
              "Sofia",
              "Isabella"
            ]
          },
          {
            "use": "maiden",
            "family": "Lopez-0645c965"
          }
        ],
        "identifier": [
          {
            "system": "http://example.com/mrn",
            "value": "MRN-007-0645c965"
          },
          {
            "system": "http://example.com/passport",
            "value": "PP-007-0645c965"
          }
        ],
        "telecom": [
          {
            "system": "phone",
            "value": "555-1007",
            "use": "mobile"
          },
          {
            "system": "phone",
            "value": "555-1008",
            "use": "home"
          },
          {
            "system": "email",
            "value": "sofia-0645c965@example.com"
          }
        ],
        "address": [
          {
            "use": "home",
            "line": [
              "1000 Maple Dr"
            ],
            "city": "Capital City",
            "state": "CA",
            "postalCode": "90001",
            "country": "US"
          },
          {
            "use": "temp",
            "city": "TempCity",
            "state": "NY"
          }
        ],
        "contact": [
          {
            "relationship": [
              {
                "coding": [
                  {
                    "system": "http://terminology.hl7.org/CodeSystem/v2-0131",
                    "code": "N"
                  }
                ]
              }
            ],
            "name": {
              "family": "EmergencyContact-0645c965",
              "given": [
                "Carlos"
              ]
            },
            "telecom": [
              {
                "system": "phone",
                "value": "555-9999"
              }
            ]
          }
        ]
      },
      "request": {
        "method": "POST",
        "url": "Patient"
      }
    },
    {
      "fullUrl": "urn:uuid:88fcfb87-4358-4e41-b9bd-f049cd7f9d64",
      "resource": {
        "resourceType": "Encounter",
        "status": "finished",
        "class": {
          "system": "http://terminology.hl7.org/CodeSystem/v3-ActCode",
          "code": "AMB",
          "display": "Ambulatory-0645c965"
        },
        "subject": {
          "reference": "urn:uuid:b8ecfa2d-8c9d-4eb4-8bf8-8259e2a0b01c"
        },
        "serviceProvider": {
          "reference": "urn:uuid:daa5c6b3-79ae-48f1-96fa-b68f32ce410d"
        },
        "participant": [
          {
            "individual": {
              "reference": "urn:uuid:6445cd74-72ba-4bac-b55e-3ffb19c7b65e"
            }
          }
        ],
        "period": {
          "start": "2025-01-10T08:00:00Z",
          "end": "2025-01-10T09:00:00Z"
        },
        "type": [
          {
            "coding": [
              {
                "system": "http://snomed.info/sct",
                "code": "308335008",
                "display": "OPD-0645c965"
              }
            ]
          }
        ]
      },
      "request": {
        "method": "POST",
        "url": "Encounter"
      }
    },
    {
      "fullUrl": "urn:uuid:6c8fc1ca-0f36-455f-8dc9-666e43141a9d",
      "resource": {
        "resourceType": "Encounter",
        "status": "finished",
        "class": {
          "system": "http://terminology.hl7.org/CodeSystem/v3-ActCode",
          "code": "IMP"
        },
        "subject": {
          "reference": "urn:uuid:b8ecfa2d-8c9d-4eb4-8bf8-8259e2a0b01c"
        },
        "serviceProvider": {
          "reference": "urn:uuid:daa5c6b3-79ae-48f1-96fa-b68f32ce410d"
        },
        "period": {
          "start": "2025-02-01T10:00:00Z",
          "end": "2025-02-05T14:00:00Z"
        }
      },
      "request": {
        "method": "POST",
        "url": "Encounter"
      }
    },
    {
      "fullUrl": "urn:uuid:3b86ddba-70c6-423f-8e56-9723227b1c76",
      "resource": {
        "resourceType": "Encounter",
        "status": "finished",
        "class": {
          "system": "http://terminology.hl7.org/CodeSystem/v3-ActCode",
          "code": "AMB"
        },
        "subject": {
          "reference": "urn:uuid:cde13945-dfac-49aa-bcb4-fec3ff6b3bf4"
        },
        "serviceProvider": {
          "reference": "urn:uuid:daa5c6b3-79ae-48f1-96fa-b68f32ce410d"
        },
        "participant": [
          {
            "individual": {
              "reference": "urn:uuid:79e0445a-6136-407e-95be-304871c664af"
            }
          }
        ],
        "period": {
          "start": "2025-03-15T14:00:00Z"
        }
      },
      "request": {
        "method": "POST",
        "url": "Encounter"
      }
    },
    {
      "fullUrl": "urn:uuid:5638dcdc-1c1c-443c-b871-31f4e5634adf",
      "resource": {
        "resourceType": "Encounter",
        "status": "in-progress",
        "class": {
          "system": "http://terminology.hl7.org/CodeSystem/v3-ActCode",
          "code": "EMER"
        },
        "subject": {
          "reference": "urn:uuid:4e8b2ea0-d1bc-40db-ba65-a269f931b4a0"
        },
        "serviceProvider": {
          "reference": "urn:uuid:daa5c6b3-79ae-48f1-96fa-b68f32ce410d"
        },
        "period": {
          "start": "2026-02-25T10:00:00Z"
        }
      },
      "request": {
        "method": "POST",
        "url": "Encounter"
      }
    },
    {
      "fullUrl": "urn:uuid:fd769dfd-ef35-4ef7-b1d2-7de6f8997406",
      "resource": {
        "resourceType": "Encounter",
        "status": "planned",
        "class": {
          "system": "http://terminology.hl7.org/CodeSystem/v3-ActCode",
          "code": "AMB"
        },
        "subject": {
          "reference": "urn:uuid:8bb2e07c-05da-43a4-9ab5-dce122d7730e"
        },
        "period": {
          "start": "2026-03-01T09:00:00Z"
        }
      },
      "request": {
        "method": "POST",
        "url": "Encounter"
      }
    },
    {
      "fullUrl": "urn:uuid:fc509d43-98f5-41a1-b107-6e72d502a293",
      "resource": {
        "resourceType": "Encounter",
        "status": "finished",
        "class": {
          "system": "http://terminology.hl7.org/CodeSystem/v3-ActCode",
          "code": "AMB"
        },
        "subject": {
          "reference": "urn:uuid:6a40c6b0-23fd-4933-ac02-7373e527abfd"
        },
        "serviceProvider": {
          "reference": "urn:uuid:7b72167f-9958-4549-bfb2-935e8583104e"
        },
        "participant": [
          {
            "individual": {
              "reference": "urn:uuid:178c0c9d-83dd-4a3e-9fb3-b8626a399c5a"
            }
          }
        ],
        "period": {
          "start": "2025-06-01T11:00:00Z",
          "end": "2025-06-01T12:00:00Z"
        }
      },
      "request": {
        "method": "POST",
        "url": "Encounter"
      }
    },
    {
      "fullUrl": "urn:uuid:69f0b546-7c65-4087-887a-c362a29caadc",
      "resource": {
        "resourceType": "Condition",
        "clinicalStatus": {
          "coding": [
            {
              "system": "http://terminology.hl7.org/CodeSystem/condition-clinical",
              "code": "active"
            }
          ]
        },
        "verificationStatus": {
          "coding": [
            {
              "system": "http://terminology.hl7.org/CodeSystem/condition-ver-status",
              "code": "confirmed"
            }
          ]
        },
        "code": {
          "coding": [
            {
              "system": "http://snomed.info/sct",
              "code": "44054006",
              "display": "Type2DM-0645c965"
            }
          ]
        },
        "subject": {
          "reference": "urn:uuid:b8ecfa2d-8c9d-4eb4-8bf8-8259e2a0b01c"
        },
        "encounter": {
          "reference": "urn:uuid:88fcfb87-4358-4e41-b9bd-f049cd7f9d64"
        },
        "onsetDateTime": "2020-01-01"
      },
      "request": {
        "method": "POST",
        "url": "Condition"
      }
    },
    {
      "fullUrl": "urn:uuid:702ba96c-8047-4e70-8e3f-da718d766ba8",
      "resource": {
        "resourceType": "Condition",
        "clinicalStatus": {
          "coding": [
            {
              "system": "http://terminology.hl7.org/CodeSystem/condition-clinical",
              "code": "active"
            }
          ]
        },
        "verificationStatus": {
          "coding": [
            {
              "system": "http://terminology.hl7.org/CodeSystem/condition-ver-status",
              "code": "confirmed"
            }
          ]
        },
        "code": {
          "coding": [
            {
              "system": "http://snomed.info/sct",
              "code": "38341003",
              "display": "Hypertension-0645c965"
            }
          ]
        },
        "subject": {
          "reference": "urn:uuid:b8ecfa2d-8c9d-4eb4-8bf8-8259e2a0b01c"
        },
        "onsetDateTime": "2018-06-15"
      },
      "request": {
        "method": "POST",
        "url": "Condition"
      }
    },
    {
      "fullUrl": "urn:uuid:651f2b92-93ea-4cf9-add1-0d53d6ee1113",
      "resource": {
        "resourceType": "Condition",
        "clinicalStatus": {
          "coding": [
            {
              "system": "http://terminology.hl7.org/CodeSystem/condition-clinical",
              "code": "resolved"
            }
          ]
        },
        "code": {
          "coding": [
            {
              "system": "http://snomed.info/sct",
              "code": "195662009",
              "display": "Pneumonia-0645c965"
            }
          ]
        },
        "subject": {
          "reference": "urn:uuid:cde13945-dfac-49aa-bcb4-fec3ff6b3bf4"
        },
        "encounter": {
          "reference": "urn:uuid:3b86ddba-70c6-423f-8e56-9723227b1c76"
        },
        "onsetDateTime": "2025-03-10",
        "abatementDateTime": "2025-03-25"
      },
      "request": {
        "method": "POST",
        "url": "Condition"
      }
    },
    {
      "fullUrl": "urn:uuid:1833797a-ef9c-4ca4-afcd-6b4a8c7bea08",
      "resource": {
        "resourceType": "Condition",
        "clinicalStatus": {
          "coding": [
            {
              "system": "http://terminology.hl7.org/CodeSystem/condition-clinical",
              "code": "active"
            }
          ]
        },
        "code": {
          "coding": [
            {
              "system": "http://snomed.info/sct",
              "code": "73211009",
              "display": "DiabetesI-0645c965"
            }
          ]
        },
        "subject": {
          "reference": "urn:uuid:4e8b2ea0-d1bc-40db-ba65-a269f931b4a0"
        },
        "onsetDateTime": "2010-05-01"
      },
      "request": {
        "method": "POST",
        "url": "Condition"
      }
    },
    {
      "fullUrl": "urn:uuid:d92e254f-8c9f-4ed7-8c9e-f196f85b0064",
      "resource": {
        "resourceType": "Condition",
        "clinicalStatus": {
          "coding": [
            {
              "system": "http://terminology.hl7.org/CodeSystem/condition-clinical",
              "code": "active"
            }
          ]
        },
        "code": {
          "coding": [
            {
              "system": "http://snomed.info/sct",
              "code": "195967001",
              "display": "Asthma-0645c965"
            }
          ]
        },
        "subject": {
          "reference": "urn:uuid:6a40c6b0-23fd-4933-ac02-7373e527abfd"
        },
        "encounter": {
          "reference": "urn:uuid:fc509d43-98f5-41a1-b107-6e72d502a293"
        },
        "onsetDateTime": "2015-08-20"
      },
      "request": {
        "method": "POST",
        "url": "Condition"
      }
    },
    {
      "fullUrl": "urn:uuid:be4e1149-0779-4248-b6ed-32c64d0b8a5b",
      "resource": {
        "resourceType": "Observation",
        "status": "final",
        "code": {
          "coding": [
            {
              "system": "http://loinc.org",
              "code": "29463-7",
              "display": "BodyWeight-0645c965"
            }
          ]
        },
        "subject": {
          "reference": "urn:uuid:b8ecfa2d-8c9d-4eb4-8bf8-8259e2a0b01c"
        },
        "encounter": {
          "reference": "urn:uuid:88fcfb87-4358-4e41-b9bd-f049cd7f9d64"
        },
        "valueQuantity": {
          "value": 75.5,
          "unit": "kg",
          "system": "http://unitsofmeasure.org",
          "code": "kg"
        },
        "effectiveDateTime": "2025-01-10T08:30:00Z",
        "category": [
          {
            "coding": [
              {
                "system": "http://terminology.hl7.org/CodeSystem/observation-category",
                "code": "vital-signs"
              }
            ]
          }
        ]
      },
      "request": {
        "method": "POST",
        "url": "Observation"
      }
    },
    {
      "fullUrl": "urn:uuid:ab201da3-9e96-446d-a1a1-2bc5e3b6db97",
      "resource": {
        "resourceType": "Observation",
        "status": "final",
        "code": {
          "coding": [
            {
              "system": "http://loinc.org",
              "code": "8867-4",
              "display": "HeartRate-0645c965"
            }
          ]
        },
        "subject": {
          "reference": "urn:uuid:b8ecfa2d-8c9d-4eb4-8bf8-8259e2a0b01c"
        },
        "encounter": {
          "reference": "urn:uuid:88fcfb87-4358-4e41-b9bd-f049cd7f9d64"
        },
        "valueQuantity": {
          "value": 72,
          "unit": "/min",
          "system": "http://unitsofmeasure.org",
          "code": "/min"
        },
        "effectiveDateTime": "2025-01-10T08:30:00Z"
      },
      "request": {
        "method": "POST",
        "url": "Observation"
      }
    },
    {
      "fullUrl": "urn:uuid:2985f808-2782-4b3c-b7ff-5322ab680224",
      "resource": {
        "resourceType": "Observation",
        "status": "final",
        "code": {
          "coding": [
            {
              "system": "http://loinc.org",
              "code": "85354-9",
              "display": "BP-0645c965"
            }
          ]
        },
        "subject": {
          "reference": "urn:uuid:b8ecfa2d-8c9d-4eb4-8bf8-8259e2a0b01c"
        },
        "encounter": {
          "reference": "urn:uuid:6c8fc1ca-0f36-455f-8dc9-666e43141a9d"
        },
        "component": [
          {
            "code": {
              "coding": [
                {
                  "system": "http://loinc.org",
                  "code": "8480-6"
                }
              ]
            },
            "valueQuantity": {
              "value": 120,
              "unit": "mmHg"
            }
          },
          {
            "code": {
              "coding": [
                {
                  "system": "http://loinc.org",
                  "code": "8462-4"
                }
              ]
            },
            "valueQuantity": {
              "value": 80,
              "unit": "mmHg"
            }
          }
        ],
        "effectiveDateTime": "2025-02-01T10:30:00Z"
      },
      "request": {
        "method": "POST",
        "url": "Observation"
      }
    },
    {
      "fullUrl": "urn:uuid:63114b8d-611a-43bb-9a4e-44257a4eaced",
      "resource": {
        "resourceType": "Observation",
        "status": "final",
        "code": {
          "coding": [
            {
              "system": "http://loinc.org",
              "code": "2339-0",
              "display": "Glucose-0645c965"
            }
          ]
        },
        "subject": {
          "reference": "urn:uuid:cde13945-dfac-49aa-bcb4-fec3ff6b3bf4"
        },
        "encounter": {
          "reference": "urn:uuid:3b86ddba-70c6-423f-8e56-9723227b1c76"
        },
        "valueQuantity": {
          "value": 95,
          "unit": "mg/dL"
        },
        "effectiveDateTime": "2025-03-15T14:30:00Z",
        "interpretation": [
          {
            "coding": [
              {
                "system": "http://terminology.hl7.org/CodeSystem/v3-ObservationInterpretation",
                "code": "N",
                "display": "Normal"
              }
            ]
          }
        ]
      },
      "request": {
        "method": "POST",
        "url": "Observation"
      }
    },
    {
      "fullUrl": "urn:uuid:bd75d762-955b-459e-9251-7e397e627dd3",
      "resource": {
        "resourceType": "Observation",
        "status": "final",
        "code": {
          "coding": [
            {
              "system": "http://loinc.org",
              "code": "718-7",
              "display": "Hemoglobin-0645c965"
            }
          ]
        },
        "subject": {
          "reference": "urn:uuid:4e8b2ea0-d1bc-40db-ba65-a269f931b4a0"
        },
        "valueQuantity": {
          "value": 14.2,
          "unit": "g/dL"
        },
        "effectiveDateTime": "2025-04-01"
      },
      "request": {
        "method": "POST",
        "url": "Observation"
      }
    },
    {
      "fullUrl": "urn:uuid:7d4905bb-d8b8-4e1a-ab1e-f0dda7e75e92",
      "resource": {
        "resourceType": "Observation",
        "status": "preliminary",
        "code": {
          "coding": [
            {
              "system": "http://loinc.org",
              "code": "6690-2",
              "display": "WBC-0645c965"
            }
          ]
        },
        "subject": {
          "reference": "urn:uuid:4e8b2ea0-d1bc-40db-ba65-a269f931b4a0"
        },
        "encounter": {
          "reference": "urn:uuid:5638dcdc-1c1c-443c-b871-31f4e5634adf"
        },
        "valueQuantity": {
          "value": 8500,
          "unit": "/uL"
        },
        "effectiveDateTime": "2026-02-25T10:30:00Z"
      },
      "request": {
        "method": "POST",
        "url": "Observation"
      }
    },
    {
      "fullUrl": "urn:uuid:e41c783b-6712-48a2-bc4e-e37942f52797",
      "resource": {
        "resourceType": "Observation",
        "status": "final",
        "code": {
          "coding": [
            {
              "system": "http://loinc.org",
              "code": "39156-5",
              "display": "BMI-0645c965"
            }
          ]
        },
        "subject": {
          "reference": "urn:uuid:6a40c6b0-23fd-4933-ac02-7373e527abfd"
        },
        "encounter": {
          "reference": "urn:uuid:fc509d43-98f5-41a1-b107-6e72d502a293"
        },
        "valueQuantity": {
          "value": 22.1,
          "unit": "kg/m2"
        },
        "effectiveDateTime": "2025-06-01T11:30:00Z"
      },
      "request": {
        "method": "POST",
        "url": "Observation"
      }
    },
    {
      "fullUrl": "urn:uuid:5b49f1ef-c05a-4c0b-ad39-6f874b31968c",
      "resource": {
        "resourceType": "Observation",
        "status": "final",
        "code": {
          "coding": [
            {
              "system": "http://loinc.org",
              "code": "8310-5",
              "display": "BodyTemp-0645c965"
            }
          ]
        },
        "subject": {
          "reference": "urn:uuid:6a40c6b0-23fd-4933-ac02-7373e527abfd"
        },
        "valueQuantity": {
          "value": 37.2,
          "unit": "Cel"
        },
        "effectiveDateTime": "2025-06-01T11:35:00Z"
      },
      "request": {
        "method": "POST",
        "url": "Observation"
      }
    },
    {
      "fullUrl": "urn:uuid:f6bf25b8-d2d3-4ce7-99ae-3612a18d1326",
      "resource": {
        "resourceType": "DiagnosticReport",
        "status": "final",
        "code": {
          "coding": [
            {
              "system": "http://loinc.org",
              "code": "58410-2",
              "display": "CBC-0645c965"
            }
          ]
        },
        "subject": {
          "reference": "urn:uuid:b8ecfa2d-8c9d-4eb4-8bf8-8259e2a0b01c"
        },
        "encounter": {
          "reference": "urn:uuid:88fcfb87-4358-4e41-b9bd-f049cd7f9d64"
        },
        "result": [
          {
            "reference": "urn:uuid:be4e1149-0779-4248-b6ed-32c64d0b8a5b"
          },
          {
            "reference": "urn:uuid:ab201da3-9e96-446d-a1a1-2bc5e3b6db97"
          }
        ],
        "effectiveDateTime": "2025-01-10T09:00:00Z",
        "issued": "2025-01-10T10:00:00Z"
      },
      "request": {
        "method": "POST",
        "url": "DiagnosticReport"
      }
    },
    {
      "fullUrl": "urn:uuid:76ec2f6c-41ef-496e-a9dc-6af79d875295",
      "resource": {
        "resourceType": "DiagnosticReport",
        "status": "final",
        "code": {
          "coding": [
            {
              "system": "http://loinc.org",
              "code": "24323-8",
              "display": "CMP-0645c965"
            }
          ]
        },
        "subject": {
          "reference": "urn:uuid:b8ecfa2d-8c9d-4eb4-8bf8-8259e2a0b01c"
        },
        "encounter": {
          "reference": "urn:uuid:6c8fc1ca-0f36-455f-8dc9-666e43141a9d"
        },
        "result": [
          {
            "reference": "urn:uuid:2985f808-2782-4b3c-b7ff-5322ab680224"
          }
        ],
        "effectiveDateTime": "2025-02-01T11:00:00Z"
      },
      "request": {
        "method": "POST",
        "url": "DiagnosticReport"
      }
    },
    {
      "fullUrl": "urn:uuid:971df1d3-6a23-4ae1-ba24-6921419faedc",
      "resource": {
        "resourceType": "DiagnosticReport",
        "status": "final",
        "code": {
          "coding": [
            {
              "system": "http://loinc.org",
              "code": "2339-0",
              "display": "GlucoseReport-0645c965"
            }
          ]
        },
        "subject": {
          "reference": "urn:uuid:cde13945-dfac-49aa-bcb4-fec3ff6b3bf4"
        },
        "result": [
          {
            "reference": "urn:uuid:63114b8d-611a-43bb-9a4e-44257a4eaced"
          }
        ],
        "effectiveDateTime": "2025-03-15T15:00:00Z"
      },
      "request": {
        "method": "POST",
        "url": "DiagnosticReport"
      }
    },
    {
      "fullUrl": "urn:uuid:ad6901c3-1fa0-462f-82ba-d7624acbc353",
      "resource": {
        "resourceType": "DiagnosticReport",
        "status": "preliminary",
        "code": {
          "coding": [
            {
              "system": "http://loinc.org",
              "code": "58410-2",
              "display": "CBC2-0645c965"
            }
          ]
        },
        "subject": {
          "reference": "urn:uuid:4e8b2ea0-d1bc-40db-ba65-a269f931b4a0"
        },
        "result": [
          {
            "reference": "urn:uuid:bd75d762-955b-459e-9251-7e397e627dd3"
          },
          {
            "reference": "urn:uuid:7d4905bb-d8b8-4e1a-ab1e-f0dda7e75e92"
          }
        ],
        "effectiveDateTime": "2026-02-25T11:00:00Z"
      },
      "request": {
        "method": "POST",
        "url": "DiagnosticReport"
      }
    },
    {
      "fullUrl": "urn:uuid:353928df-bbb6-4962-a4bb-3c8447b56439",
      "resource": {
        "resourceType": "DiagnosticReport",
        "status": "final",
        "code": {
          "coding": [
            {
              "system": "http://loinc.org",
              "code": "55399-0",
              "display": "Vitals-0645c965"
            }
          ]
        },
        "subject": {
          "reference": "urn:uuid:6a40c6b0-23fd-4933-ac02-7373e527abfd"
        },
        "encounter": {
          "reference": "urn:uuid:fc509d43-98f5-41a1-b107-6e72d502a293"
        },
        "result": [
          {
            "reference": "urn:uuid:e41c783b-6712-48a2-bc4e-e37942f52797"
          },
          {
            "reference": "urn:uuid:5b49f1ef-c05a-4c0b-ad39-6f874b31968c"
          }
        ],
        "effectiveDateTime": "2025-06-01T12:00:00Z"
      },
      "request": {
        "method": "POST",
        "url": "DiagnosticReport"
      }
    },
    {
      "fullUrl": "urn:uuid:e563237c-2c71-482e-bcf2-2cfbef6ea78b",
      "resource": {
        "resourceType": "MedicationRequest",
        "status": "active",
        "intent": "order",
        "medicationReference": {
          "reference": "urn:uuid:c39742af-8500-47d1-be3b-a0915dd319d6"
        },
        "subject": {
          "reference": "urn:uuid:b8ecfa2d-8c9d-4eb4-8bf8-8259e2a0b01c"
        },
        "encounter": {
          "reference": "urn:uuid:88fcfb87-4358-4e41-b9bd-f049cd7f9d64"
        },
        "requester": {
          "reference": "urn:uuid:6445cd74-72ba-4bac-b55e-3ffb19c7b65e"
        },
        "authoredOn": "2025-01-10",
        "dosageInstruction": [
          {
            "text": "Take 500mg PRN-0645c965",
            "timing": {
              "repeat": {
                "frequency": 3,
                "period": 1,
                "periodUnit": "d"
              }
            }
          }
        ]
      },
      "request": {
        "method": "POST",
        "url": "MedicationRequest"
      }
    },
    {
      "fullUrl": "urn:uuid:1257b0bf-5b12-44f2-8862-1a7d1c3e5460",
      "resource": {
        "resourceType": "MedicationRequest",
        "status": "active",
        "intent": "order",
        "medicationReference": {
          "reference": "urn:uuid:7bfbbdb3-0745-4e79-a03b-2277922e10a9"
        },
        "subject": {
          "reference": "urn:uuid:b8ecfa2d-8c9d-4eb4-8bf8-8259e2a0b01c"
        },
        "requester": {
          "reference": "urn:uuid:6445cd74-72ba-4bac-b55e-3ffb19c7b65e"
        },
        "authoredOn": "2025-02-01",
        "dosageInstruction": [
          {
            "text": "250mg TID-0645c965"
          }
        ]
      },
      "request": {
        "method": "POST",
        "url": "MedicationRequest"
      }
    },
    {
      "fullUrl": "urn:uuid:e54461df-ed6d-467e-a9b2-916595617d87",
      "resource": {
        "resourceType": "MedicationRequest",
        "status": "active",
        "intent": "order",
        "medicationReference": {
          "reference": "urn:uuid:b03fd294-b5cf-46cf-8678-c43fbf8258a8"
        },
        "subject": {
          "reference": "urn:uuid:cde13945-dfac-49aa-bcb4-fec3ff6b3bf4"
        },
        "requester": {
          "reference": "urn:uuid:79e0445a-6136-407e-95be-304871c664af"
        },
        "authoredOn": "2025-03-15"
      },
      "request": {
        "method": "POST",
        "url": "MedicationRequest"
      }
    },
    {
      "fullUrl": "urn:uuid:2b79a67e-97d5-4bc2-a0ea-2618fa21ffac",
      "resource": {
        "resourceType": "MedicationRequest",
        "status": "stopped",
        "intent": "order",
        "medicationReference": {
          "reference": "urn:uuid:72166771-9b5c-4914-aecb-c3de34a5d181"
        },
        "subject": {
          "reference": "urn:uuid:4e8b2ea0-d1bc-40db-ba65-a269f931b4a0"
        },
        "requester": {
          "reference": "urn:uuid:9ac109fb-fbed-48eb-8d77-6ee101e21418"
        },
        "authoredOn": "2025-04-01"
      },
      "request": {
        "method": "POST",
        "url": "MedicationRequest"
      }
    },
    {
      "fullUrl": "urn:uuid:91c53895-e9a3-4a06-8e11-86908ac8fb96",
      "resource": {
        "resourceType": "MedicationRequest",
        "status": "active",
        "intent": "plan",
        "medicationReference": {
          "reference": "urn:uuid:8c43e92b-4215-4758-b975-f423e5344cf8"
        },
        "subject": {
          "reference": "urn:uuid:6a40c6b0-23fd-4933-ac02-7373e527abfd"
        },
        "encounter": {
          "reference": "urn:uuid:fc509d43-98f5-41a1-b107-6e72d502a293"
        },
        "requester": {
          "reference": "urn:uuid:178c0c9d-83dd-4a3e-9fb3-b8626a399c5a"
        },
        "authoredOn": "2025-06-01"
      },
      "request": {
        "method": "POST",
        "url": "MedicationRequest"
      }
    },
    {
      "fullUrl": "urn:uuid:c39742af-8500-47d1-be3b-a0915dd319d6",
      "resource": {
        "resourceType": "Medication",
        "code": {
          "coding": [
            {
              "system": "http://www.nlm.nih.gov/research/umls/rxnorm",
              "code": "1049502",
              "display": "Acetaminophen-0645c965"
            }
          ]
        },
        "status": "active"
      },
      "request": {
        "method": "POST",
        "url": "Medication"
      }
    },
    {
      "fullUrl": "urn:uuid:7bfbbdb3-0745-4e79-a03b-2277922e10a9",
      "resource": {
        "resourceType": "Medication",
        "code": {
          "coding": [
            {
              "system": "http://www.nlm.nih.gov/research/umls/rxnorm",
              "code": "197361",
              "display": "Amoxicillin-0645c965"
            }
          ]
        },
        "status": "active",
        "manufacturer": {
          "reference": "urn:uuid:1d39a9be-7858-44cc-8aaf-beaa717f56df"
        }
      },
      "request": {
        "method": "POST",
        "url": "Medication"
      }
    },
    {
      "fullUrl": "urn:uuid:b03fd294-b5cf-46cf-8678-c43fbf8258a8",
      "resource": {
        "resourceType": "Medication",
        "code": {
          "coding": [
            {
              "system": "http://www.nlm.nih.gov/research/umls/rxnorm",
              "code": "310965",
              "display": "Lisinopril-0645c965"
            }
          ]
        },
        "status": "active"
      },
      "request": {
        "method": "POST",
        "url": "Medication"
      }
    },
    {
      "fullUrl": "urn:uuid:72166771-9b5c-4914-aecb-c3de34a5d181",
      "resource": {
        "resourceType": "Medication",
        "code": {
          "coding": [
            {
              "system": "http://www.nlm.nih.gov/research/umls/rxnorm",
              "code": "860975",
              "display": "Metformin-0645c965"
            }
          ]
        },
        "status": "active"
      },
      "request": {
        "method": "POST",
        "url": "Medication"
      }
    },
    {
      "fullUrl": "urn:uuid:8c43e92b-4215-4758-b975-f423e5344cf8",
      "resource": {
        "resourceType": "Medication",
        "code": {
          "coding": [
            {
              "system": "http://www.nlm.nih.gov/research/umls/rxnorm",
              "code": "198440",
              "display": "Omeprazole-0645c965"
            }
          ]
        },
        "status": "inactive"
      },
      "request": {
        "method": "POST",
        "url": "Medication"
      }
    },
    {
      "fullUrl": "urn:uuid:7cb9f1d0-4c6a-455e-a7e1-d9824ba83789",
      "resource": {
        "resourceType": "AllergyIntolerance",
        "clinicalStatus": {
          "coding": [
            {
              "system": "http://terminology.hl7.org/CodeSystem/allergyintolerance-clinical",
              "code": "active"
            }
          ]
        },
        "verificationStatus": {
          "coding": [
            {
              "system": "http://terminology.hl7.org/CodeSystem/allergyintolerance-verification",
              "code": "confirmed"
            }
          ]
        },
        "type": "allergy",
        "category": [
          "medication"
        ],
        "code": {
          "coding": [
            {
              "system": "http://snomed.info/sct",
              "code": "387458008",
              "display": "Aspirin-0645c965"
            }
          ]
        },
        "patient": {
          "reference": "urn:uuid:b8ecfa2d-8c9d-4eb4-8bf8-8259e2a0b01c"
        },
        "onsetDateTime": "2015-01-01",
        "reaction": [
          {
            "manifestation": [
              {
                "coding": [
                  {
                    "system": "http://snomed.info/sct",
                    "code": "271807003",
                    "display": "Rash"
                  }
                ]
              }
            ],
            "severity": "moderate"
          }
        ]
      },
      "request": {
        "method": "POST",
        "url": "AllergyIntolerance"
      }
    },
    {
      "fullUrl": "urn:uuid:b8fd344e-0457-4bc1-9088-7506f03dd3c1",
      "resource": {
        "resourceType": "AllergyIntolerance",
        "clinicalStatus": {
          "coding": [
            {
              "system": "http://terminology.hl7.org/CodeSystem/allergyintolerance-clinical",
              "code": "active"
            }
          ]
        },
        "type": "allergy",
        "category": [
          "food"
        ],
        "code": {
          "coding": [
            {
              "system": "http://snomed.info/sct",
              "code": "91935009",
              "display": "Peanut-0645c965"
            }
          ]
        },
        "patient": {
          "reference": "urn:uuid:b8ecfa2d-8c9d-4eb4-8bf8-8259e2a0b01c"
        }
      },
      "request": {
        "method": "POST",
        "url": "AllergyIntolerance"
      }
    },
    {
      "fullUrl": "urn:uuid:59854aa7-4106-43c2-b188-c3d4192f242b",
      "resource": {
        "resourceType": "AllergyIntolerance",
        "clinicalStatus": {
          "coding": [
            {
              "system": "http://terminology.hl7.org/CodeSystem/allergyintolerance-clinical",
              "code": "active"
            }
          ]
        },
        "type": "intolerance",
        "category": [
          "medication"
        ],
        "code": {
          "coding": [
            {
              "system": "http://snomed.info/sct",
              "code": "372687004",
              "display": "Penicillin-0645c965"
            }
          ]
        },
        "patient": {
          "reference": "urn:uuid:cde13945-dfac-49aa-bcb4-fec3ff6b3bf4"
        }
      },
      "request": {
        "method": "POST",
        "url": "AllergyIntolerance"
      }
    },
    {
      "fullUrl": "urn:uuid:bad2e177-212c-46ef-aff4-9911e17c6597",
      "resource": {
        "resourceType": "AllergyIntolerance",
        "clinicalStatus": {
          "coding": [
            {
              "system": "http://terminology.hl7.org/CodeSystem/allergyintolerance-clinical",
              "code": "resolved"
            }
          ]
        },
        "code": {
          "coding": [
            {
              "system": "http://snomed.info/sct",
              "code": "264295007",
              "display": "Latex-0645c965"
            }
          ]
        },
        "patient": {
          "reference": "urn:uuid:4e8b2ea0-d1bc-40db-ba65-a269f931b4a0"
        }
      },
      "request": {
        "method": "POST",
        "url": "AllergyIntolerance"
      }
    },
    {
      "fullUrl": "urn:uuid:35734df5-ca70-41dc-9ede-462deff5db0f",
      "resource": {
        "resourceType": "AllergyIntolerance",
        "clinicalStatus": {
          "coding": [
            {
              "system": "http://terminology.hl7.org/CodeSystem/allergyintolerance-clinical",
              "code": "active"
            }
          ]
        },
        "type": "allergy",
        "category": [
          "environment"
        ],
        "code": {
          "coding": [
            {
              "system": "http://snomed.info/sct",
              "code": "256259004",
              "display": "Pollen-0645c965"
            }
          ]
        },
        "patient": {
          "reference": "urn:uuid:6a40c6b0-23fd-4933-ac02-7373e527abfd"
        }
      },
      "request": {
        "method": "POST",
        "url": "AllergyIntolerance"
      }
    },
    {
      "fullUrl": "urn:uuid:d3709f99-2bf9-4b00-b6a6-f4a88036c340",
      "resource": {
        "resourceType": "Procedure",
        "status": "completed",
        "code": {
          "coding": [
            {
              "system": "http://snomed.info/sct",
              "code": "80146002",
              "display": "Appendectomy-0645c965"
            }
          ]
        },
        "subject": {
          "reference": "urn:uuid:b8ecfa2d-8c9d-4eb4-8bf8-8259e2a0b01c"
        },
        "encounter": {
          "reference": "urn:uuid:6c8fc1ca-0f36-455f-8dc9-666e43141a9d"
        },
        "performedDateTime": "2025-02-03T14:00:00Z",
        "performer": [
          {
            "actor": {
              "reference": "urn:uuid:9ac109fb-fbed-48eb-8d77-6ee101e21418"
            }
          }
        ]
      },
      "request": {
        "method": "POST",
        "url": "Procedure"
      }
    },
    {
      "fullUrl": "urn:uuid:8331dfce-5b7e-4bad-a977-4e838ac6000f",
      "resource": {
        "resourceType": "Procedure",
        "status": "completed",
        "code": {
          "coding": [
            {
              "system": "http://snomed.info/sct",
              "code": "232717009",
              "display": "Coronography-0645c965"
            }
          ]
        },
        "subject": {
          "reference": "urn:uuid:b8ecfa2d-8c9d-4eb4-8bf8-8259e2a0b01c"
        },
        "performedPeriod": {
          "start": "2025-02-04T08:00:00Z",
          "end": "2025-02-04T10:00:00Z"
        }
      },
      "request": {
        "method": "POST",
        "url": "Procedure"
      }
    },
    {
      "fullUrl": "urn:uuid:3214e4a4-0b36-4e12-9bca-9f5f8bfc66af",
      "resource": {
        "resourceType": "Procedure",
        "status": "completed",
        "code": {
          "coding": [
            {
              "system": "http://snomed.info/sct",
              "code": "36969009",
              "display": "BloodDraw-0645c965"
            }
          ]
        },
        "subject": {
          "reference": "urn:uuid:cde13945-dfac-49aa-bcb4-fec3ff6b3bf4"
        },
        "encounter": {
          "reference": "urn:uuid:3b86ddba-70c6-423f-8e56-9723227b1c76"
        },
        "performedDateTime": "2025-03-15T14:15:00Z"
      },
      "request": {
        "method": "POST",
        "url": "Procedure"
      }
    },
    {
      "fullUrl": "urn:uuid:037239bc-6777-439e-b146-e1a8adde82c6",
      "resource": {
        "resourceType": "Procedure",
        "status": "in-progress",
        "code": {
          "coding": [
            {
              "system": "http://snomed.info/sct",
              "code": "418891003",
              "display": "Dressing-0645c965"
            }
          ]
        },
        "subject": {
          "reference": "urn:uuid:4e8b2ea0-d1bc-40db-ba65-a269f931b4a0"
        },
        "encounter": {
          "reference": "urn:uuid:5638dcdc-1c1c-443c-b871-31f4e5634adf"
        },
        "performedDateTime": "2026-02-25T11:00:00Z"
      },
      "request": {
        "method": "POST",
        "url": "Procedure"
      }
    },
    {
      "fullUrl": "urn:uuid:8da7082d-93d0-4a12-bebc-ff858d2d6f9c",
      "resource": {
        "resourceType": "Procedure",
        "status": "completed",
        "code": {
          "coding": [
            {
              "system": "http://snomed.info/sct",
              "code": "274025005",
              "display": "EKG-0645c965"
            }
          ]
        },
        "subject": {
          "reference": "urn:uuid:6a40c6b0-23fd-4933-ac02-7373e527abfd"
        },
        "encounter": {
          "reference": "urn:uuid:fc509d43-98f5-41a1-b107-6e72d502a293"
        },
        "performedDateTime": "2025-06-01T11:45:00Z"
      },
      "request": {
        "method": "POST",
        "url": "Procedure"
      }
    },
    {
      "fullUrl": "urn:uuid:af311676-318b-4962-86d9-52e06e0078fa",
      "resource": {
        "resourceType": "ServiceRequest",
        "status": "active",
        "intent": "order",
        "code": {
          "coding": [
            {
              "system": "http://snomed.info/sct",
              "code": "26604007",
              "display": "FBC-0645c965"
            }
          ]
        },
        "subject": {
          "reference": "urn:uuid:b8ecfa2d-8c9d-4eb4-8bf8-8259e2a0b01c"
        },
        "encounter": {
          "reference": "urn:uuid:88fcfb87-4358-4e41-b9bd-f049cd7f9d64"
        },
        "requester": {
          "reference": "urn:uuid:6445cd74-72ba-4bac-b55e-3ffb19c7b65e"
        },
        "authoredOn": "2025-01-10"
      },
      "request": {
        "method": "POST",
        "url": "ServiceRequest"
      }
    },
    {
      "fullUrl": "urn:uuid:5048172c-a8cb-41cb-b735-7a2e4cf72e11",
      "resource": {
        "resourceType": "ServiceRequest",
        "status": "completed",
        "intent": "order",
        "code": {
          "coding": [
            {
              "system": "http://snomed.info/sct",
              "code": "77477000",
              "display": "CTScan-0645c965"
            }
          ]
        },
        "subject": {
          "reference": "urn:uuid:b8ecfa2d-8c9d-4eb4-8bf8-8259e2a0b01c"
        },
        "encounter": {
          "reference": "urn:uuid:6c8fc1ca-0f36-455f-8dc9-666e43141a9d"
        },
        "authoredOn": "2025-02-01"
      },
      "request": {
        "method": "POST",
        "url": "ServiceRequest"
      }
    },
    {
      "fullUrl": "urn:uuid:c5a24291-0065-4fff-a917-5c90236e8cd2",
      "resource": {
        "resourceType": "ServiceRequest",
        "status": "active",
        "intent": "order",
        "code": {
          "coding": [
            {
              "system": "http://snomed.info/sct",
              "code": "104001",
              "display": "Excision-0645c965"
            }
          ]
        },
        "subject": {
          "reference": "urn:uuid:cde13945-dfac-49aa-bcb4-fec3ff6b3bf4"
        },
        "authoredOn": "2025-03-15"
      },
      "request": {
        "method": "POST",
        "url": "ServiceRequest"
      }
    },
    {
      "fullUrl": "urn:uuid:320e3c25-e54d-4727-ad49-a1f53c647ae5",
      "resource": {
        "resourceType": "ServiceRequest",
        "status": "active",
        "intent": "order",
        "code": {
          "coding": [
            {
              "system": "http://snomed.info/sct",
              "code": "252275004",
              "display": "Imaging-0645c965"
            }
          ]
        },
        "subject": {
          "reference": "urn:uuid:4e8b2ea0-d1bc-40db-ba65-a269f931b4a0"
        },
        "encounter": {
          "reference": "urn:uuid:5638dcdc-1c1c-443c-b871-31f4e5634adf"
        },
        "authoredOn": "2026-02-25"
      },
      "request": {
        "method": "POST",
        "url": "ServiceRequest"
      }
    },
    {
      "fullUrl": "urn:uuid:4ada80d3-2b70-47b0-a0d7-df572bbcaa7a",
      "resource": {
        "resourceType": "ServiceRequest",
        "status": "active",
        "intent": "plan",
        "code": {
          "coding": [
            {
              "system": "http://snomed.info/sct",
              "code": "409063005",
              "display": "Counseling-0645c965"
            }
          ]
        },
        "subject": {
          "reference": "urn:uuid:6a40c6b0-23fd-4933-ac02-7373e527abfd"
        },
        "authoredOn": "2025-06-01"
      },
      "request": {
        "method": "POST",
        "url": "ServiceRequest"
      }
    },
    {
      "fullUrl": "urn:uuid:0fd48f5a-479e-4f86-af17-b5e6530f2553",
      "resource": {
        "resourceType": "CarePlan",
        "status": "active",
        "intent": "plan",
        "title": "DM Management-0645c965",
        "subject": {
          "reference": "urn:uuid:b8ecfa2d-8c9d-4eb4-8bf8-8259e2a0b01c"
        },
        "encounter": {
          "reference": "urn:uuid:88fcfb87-4358-4e41-b9bd-f049cd7f9d64"
        },
        "addresses": [
          {
            "reference": "urn:uuid:69f0b546-7c65-4087-887a-c362a29caadc"
          }
        ],
        "category": [
          {
            "coding": [
              {
                "system": "http://hl7.org/fhir/us/core/CodeSystem/careplan-category",
                "code": "assess-plan"
              }
            ]
          }
        ]
      },
      "request": {
        "method": "POST",
        "url": "CarePlan"
      }
    },
    {
      "fullUrl": "urn:uuid:7fdeefb5-1b78-4345-8074-54c795953ccf",
      "resource": {
        "resourceType": "CarePlan",
        "status": "active",
        "intent": "plan",
        "title": "HTN Management-0645c965",
        "subject": {
          "reference": "urn:uuid:b8ecfa2d-8c9d-4eb4-8bf8-8259e2a0b01c"
        },
        "addresses": [
          {
            "reference": "urn:uuid:702ba96c-8047-4e70-8e3f-da718d766ba8"
          }
        ]
      },
      "request": {
        "method": "POST",
        "url": "CarePlan"
      }
    },
    {
      "fullUrl": "urn:uuid:96557470-e4bf-4005-92d7-49f39edfae37",
      "resource": {
        "resourceType": "CarePlan",
        "status": "completed",
        "intent": "plan",
        "title": "Pneumonia Recovery-0645c965",
        "subject": {
          "reference": "urn:uuid:cde13945-dfac-49aa-bcb4-fec3ff6b3bf4"
        },
        "addresses": [
          {
            "reference": "urn:uuid:651f2b92-93ea-4cf9-add1-0d53d6ee1113"
          }
        ]
      },
      "request": {
        "method": "POST",
        "url": "CarePlan"
      }
    },
    {
      "fullUrl": "urn:uuid:d5a641df-f50e-47b9-8485-6e6e9a6e05de",
      "resource": {
        "resourceType": "CarePlan",
        "status": "active",
        "intent": "plan",
        "title": "DM1 Care-0645c965",
        "subject": {
          "reference": "urn:uuid:4e8b2ea0-d1bc-40db-ba65-a269f931b4a0"
        },
        "addresses": [
          {
            "reference": "urn:uuid:1833797a-ef9c-4ca4-afcd-6b4a8c7bea08"
          }
        ]
      },
      "request": {
        "method": "POST",
        "url": "CarePlan"
      }
    },
    {
      "fullUrl": "urn:uuid:af73c19a-a37e-4f92-96a0-d1ee8a2984e4",
      "resource": {
        "resourceType": "CarePlan",
        "status": "active",
        "intent": "plan",
        "title": "Asthma Action-0645c965",
        "subject": {
          "reference": "urn:uuid:6a40c6b0-23fd-4933-ac02-7373e527abfd"
        },
        "encounter": {
          "reference": "urn:uuid:fc509d43-98f5-41a1-b107-6e72d502a293"
        },
        "addresses": [
          {
            "reference": "urn:uuid:d92e254f-8c9f-4ed7-8c9e-f196f85b0064"
          }
        ]
      },
      "request": {
        "method": "POST",
        "url": "CarePlan"
      }
    },
    {
      "fullUrl": "urn:uuid:2a302e81-13f3-41b5-94ea-5ae0deda0b5f",
      "resource": {
        "resourceType": "Immunization",
        "status": "completed",
        "vaccineCode": {
          "coding": [
            {
              "system": "http://hl7.org/fhir/sid/cvx",
              "code": "208",
              "display": "COVID19-0645c965"
            }
          ]
        },
        "patient": {
          "reference": "urn:uuid:b8ecfa2d-8c9d-4eb4-8bf8-8259e2a0b01c"
        },
        "occurrenceDateTime": "2025-01-15T09:00:00Z",
        "encounter": {
          "reference": "urn:uuid:88fcfb87-4358-4e41-b9bd-f049cd7f9d64"
        }
      },
      "request": {
        "method": "POST",
        "url": "Immunization"
      }
    },
    {
      "fullUrl": "urn:uuid:04198d70-f250-4555-b051-61e1bb753d99",
      "resource": {
        "resourceType": "Immunization",
        "status": "completed",
        "vaccineCode": {
          "coding": [
            {
              "system": "http://hl7.org/fhir/sid/cvx",
              "code": "141",
              "display": "Influenza-0645c965"
            }
          ]
        },
        "patient": {
          "reference": "urn:uuid:b8ecfa2d-8c9d-4eb4-8bf8-8259e2a0b01c"
        },
        "occurrenceDateTime": "2025-10-01"
      },
      "request": {
        "method": "POST",
        "url": "Immunization"
      }
    },
    {
      "fullUrl": "urn:uuid:4b29277b-e0cd-4b5c-9b28-7805d2ee755f",
      "resource": {
        "resourceType": "Immunization",
        "status": "completed",
        "vaccineCode": {
          "coding": [
            {
              "system": "http://hl7.org/fhir/sid/cvx",
              "code": "08",
              "display": "HepB-0645c965"
            }
          ]
        },
        "patient": {
          "reference": "urn:uuid:cde13945-dfac-49aa-bcb4-fec3ff6b3bf4"
        },
        "occurrenceDateTime": "2025-04-01"
      },
      "request": {
        "method": "POST",
        "url": "Immunization"
      }
    },
    {
      "fullUrl": "urn:uuid:8b84cbec-4061-482a-a101-62193dd00fb7",
      "resource": {
        "resourceType": "Immunization",
        "status": "not-done",
        "vaccineCode": {
          "coding": [
            {
              "system": "http://hl7.org/fhir/sid/cvx",
              "code": "03",
              "display": "MMR-0645c965"
            }
          ]
        },
        "patient": {
          "reference": "urn:uuid:8bb2e07c-05da-43a4-9ab5-dce122d7730e"
        },
        "occurrenceDateTime": "2025-05-01",
        "statusReason": {
          "coding": [
            {
              "system": "http://terminology.hl7.org/CodeSystem/v3-ActReason",
              "code": "MEDPREC"
            }
          ]
        }
      },
      "request": {
        "method": "POST",
        "url": "Immunization"
      }
    },
    {
      "fullUrl": "urn:uuid:35510834-cad3-4a6e-aa25-dadd66513b86",
      "resource": {
        "resourceType": "Immunization",
        "status": "completed",
        "vaccineCode": {
          "coding": [
            {
              "system": "http://hl7.org/fhir/sid/cvx",
              "code": "113",
              "display": "Tdap-0645c965"
            }
          ]
        },
        "patient": {
          "reference": "urn:uuid:6a40c6b0-23fd-4933-ac02-7373e527abfd"
        },
        "occurrenceDateTime": "2025-06-01",
        "encounter": {
          "reference": "urn:uuid:fc509d43-98f5-41a1-b107-6e72d502a293"
        }
      },
      "request": {
        "method": "POST",
        "url": "Immunization"
      }
    }
  ]
}