{
  "resourceType": "Bundle",
  "type": "transaction",
  "entry": [
    {
      "fullUrl": "urn:uuid:5cbc3a95-62d1-4873-bbef-53cc7e010b6e",
      "resource": {
        "resourceType": "Organization",
        "name": "Central Hospital-e4f90af7",
        "identifier": [
          {
            "system": "http://example.com/org",
            "value": "ORG-001-e4f90af7"
          }
        ],
        "type": [
          {
            "coding": [
              {
                "system": "http://terminology.hl7.org/CodeSystem/organization-type",
                "code": "prov"
              }
            ]
          }
        ],
        "telecom": [
          {
            "system": "phone",
            "value": "555-0100"
          }
        ],
        "address": [
          {
            "line": [
              "100 Main St"
            ],
            "city": "Springfield",
            "state": "IL",
            "postalCode": "62701",
            "country": "US"
          }
        ]
      },
      "request": {
        "method": "POST",
        "url": "Organization"
      }
    },
    {
      "fullUrl": "urn:uuid:bada777a-29a4-4a4b-9578-e016bac64cd2",
      "resource": {
        "resourceType": "Organization",
        "name": "East Wing Lab-e4f90af7",
        "identifier": [
          {
            "system": "http://example.com/org",
            "value": "ORG-002-e4f90af7"
          }
        ],
        "type": [
          {
            "coding": [
              {
                "system": "http://terminology.hl7.org/CodeSystem/organization-type",
                "code": "dept"
              }
            ]
          }
        ]
      },
      "request": {
        "method": "POST",
        "url": "Organization"
      }
    },
    {
      "fullUrl": "urn:uuid:894ffa68-4d58-442b-9446-a632177f1f24",
      "resource": {
        "resourceType": "Organization",
        "name": "Pharmacy Services-e4f90af7",
        "identifier": [
          {
            "system": "http://example.com/org",
            "value": "ORG-003-e4f90af7"
          }
        ]
      },
      "request": {
        "method": "POST",
        "url": "Organization"
      }
    },
    {
      "fullUrl": "urn:uuid:32c88be4-ee50-487d-990f-cac0b055027d",
      "resource": {
        "resourceType": "Organization",
        "name": "Insurance Corp-e4f90af7",
        "identifier": [
          {
            "system": "http://example.com/org",
            "value": "ORG-004-e4f90af7"
          }
        ],
        "type": [
          {
            "coding": [
              {
                "system": "http://terminology.hl7.org/CodeSystem/organization-type",
                "code": "ins"
              }
            ]
          }
        ]
      },
      "request": {
        "method": "POST",
        "url": "Organization"
      }
    },
    {
      "fullUrl": "urn:uuid:7916425e-df1c-491d-999d-ee99a8eaf8c5",
      "resource": {
        "resourceType": "Organization",
        "name": "Specialty Clinic-e4f90af7",
        "identifier": [
          {
            "system": "http://example.com/org",
            "value": "ORG-005-e4f90af7"
          }
        ],
        "address": [
          {
            "line": [
              "200 Oak Ave"
            ],
            "city": "Shelbyville",
            "state": "IL",
            "postalCode": "62702",
            "country": "US"
          }
        ]
      },
      "request": {
        "method": "POST",
        "url": "Organization"
      }
    },
    {
      "fullUrl": "urn:uuid:9b1631d7-ed63-4610-8a25-f06ce670f9ce",
      "resource": {
        "resourceType": "Practitioner",
        "name": [
          {
            "family": "Smith-e4f90af7",
            "given": [
              "John",
              "A"
            ],
            "prefix": [
              "Dr."
            ]
          }
        ],
        "identifier": [
          {
            "system": "http://example.com/npi",
            "value": "NPI-001-e4f90af7"
          }
        ],
        "gender": "male",
        "birthDate": "1975-03-15",
        "telecom": [
          {
            "system": "email",
            "value": "john.smith-e4f90af7@hospital.com"
          }
        ],
        "address": [
          {
            "line": [
              "100 Main St"
            ],
            "city": "Springfield",
            "state": "IL",
            "postalCode": "62701",
            "country": "US"
          }
        ]
      },
      "request": {
        "method": "POST",
        "url": "Practitioner"
      }
    },
    {
      "fullUrl": "urn:uuid:eba82b45-b2d4-459f-9e5b-94c37b220455",
      "resource": {
        "resourceType": "Practitioner",
        "name": [
          {
            "family": "Johnson-e4f90af7",
            "given": [
              "Emily"
            ]
          }
        ],
        "identifier": [
          {
            "system": "http://example.com/npi",
            "value": "NPI-002-e4f90af7"
          }
        ],
        "gender": "female"
      },
      "request": {
        "method": "POST",
        "url": "Practitioner"
      }
    },
    {
      "fullUrl": "urn:uuid:6c93b56f-2d98-4c9e-b06f-9d5afc84d76d",
      "resource": {
        "resourceType": "Practitioner",
        "name": [
          {
            "family": "Williams-e4f90af7",
            "given": [
              "Robert"
            ]
          }
        ],
        "identifier": [
          {
            "system": "http://example.com/npi",
            "value": "NPI-003-e4f90af7"
          }
        ],
        "gender": "male"
      },
      "request": {
        "method": "POST",
        "url": "Practitioner"
      }
    },
    {
      "fullUrl": "urn:uuid:3b128cad-9b32-4121-b455-b29f21a2ec98",
      "resource": {
        "resourceType": "Practitioner",
        "name": [
          {
            "family": "Brown-e4f90af7",
            "given": [
              "Sarah"
            ]
          }
        ],
        "identifier": [
          {
            "system": "http://example.com/npi",
            "value": "NPI-004-e4f90af7"
          }
        ],
        "gender": "female"
      },
      "request": {
        "method": "POST",
        "url": "Practitioner"
      }
    },
    {
      "fullUrl": "urn:uuid:1986e43f-1afe-4484-bcb1-6d71b57eed62",
      "resource": {
        "resourceType": "Practitioner",
        "name": [
          {
            "family": "Davis-e4f90af7",
            "given": [
              "Michael",
              "J"
            ]
          }
        ],
        "identifier": [
          {
            "system": "http://example.com/npi",
            "value": "NPI-005-e4f90af7"
          }
        ],
        "gender": "male",
        "telecom": [
          {
            "system": "phone",
            "value": "555-0200"
          },
          {
            "system": "email",
            "value": "michael.davis-e4f90af7@hospital.com"
          }
        ]
      },
      "request": {
        "method": "POST",
        "url": "Practitioner"
      }
    },
    {
      "fullUrl": "urn:uuid:aef4ac4a-6ef3-4aff-82e2-f4d48c428e6d",
      "resource": {
        "resourceType": "PractitionerRole",
        "practitioner": {
          "reference": "urn:uuid:9b1631d7-ed63-4610-8a25-f06ce670f9ce"
        },
        "organization": {
          "reference": "urn:uuid:5cbc3a95-62d1-4873-bbef-53cc7e010b6e"
        },
        "code": [
          {
            "coding": [
              {
                "system": "http://snomed.info/sct",
                "code": "59058001",
                "display": "GP-e4f90af7"
              }
            ]
          }
        ],
        "active": true
      },
      "request": {
        "method": "POST",
        "url": "PractitionerRole"
      }
    },
    {
      "fullUrl": "urn:uuid:debd1661-2f95-4380-8b6b-1ee0820a4c1c",
      "resource": {
        "resourceType": "PractitionerRole",
        "practitioner": {
          "reference": "urn:uuid:eba82b45-b2d4-459f-9e5b-94c37b220455"
        },
        "organization": {
          "reference": "urn:uuid:bada777a-29a4-4a4b-9578-e016bac64cd2"
        },
        "code": [
          {
            "coding": [
              {
                "system": "http://snomed.info/sct",
                "code": "61246008",
                "display": "Lab-e4f90af7"
              }
            ]
          }
        ]
      },
      "request": {
        "method": "POST",
        "url": "PractitionerRole"
      }
    },
    {
      "fullUrl": "urn:uuid:c7f8367d-3ecb-4b7e-8ae5-5980dbf1a831",
      "resource": {
        "resourceType": "PractitionerRole",
        "practitioner": {
          "reference": "urn:uuid:6c93b56f-2d98-4c9e-b06f-9d5afc84d76d"
        },
        "organization": {
          "reference": "urn:uuid:5cbc3a95-62d1-4873-bbef-53cc7e010b6e"
        },
        "code": [
          {
            "coding": [
              {
                "system": "http://snomed.info/sct",
                "code": "304292004",
                "display": "Surgeon-e4f90af7"
              }
            ]
          }
        ]
      },
      "request": {
        "method": "POST",
        "url": "PractitionerRole"
      }
    },
    {
      "fullUrl": "urn:uuid:ec6a2398-c444-4e1a-8368-01c950b9352c",
      "resource": {
        "resourceType": "PractitionerRole",
        "practitioner": {
          "reference": "urn:uuid:3b128cad-9b32-4121-b455-b29f21a2ec98"
        },
        "organization": {
          "reference": "urn:uuid:894ffa68-4d58-442b-9446-a632177f1f24"
        },
        "code": [
          {
            "coding": [
              {
                "system": "http://snomed.info/sct",
                "code": "46255001",
                "display": "Pharmacist-e4f90af7"
              }
            ]
          }
        ]
      },
      "request": {
        "method": "POST",
        "url": "PractitionerRole"
      }
    },
    {
      "fullUrl": "urn:uuid:f908018a-ad5e-4383-aa14-46fdc3cf96e8",
      "resource": {
        "resourceType": "PractitionerRole",
        "practitioner": {
          "reference": "urn:uuid:1986e43f-1afe-4484-bcb1-6d71b57eed62"
        },
        "organization": {
          "reference": "urn:uuid:7916425e-df1c-491d-999d-ee99a8eaf8c5"
        },
        "code": [
          {
            "coding": [
              {
                "system": "http://snomed.info/sct",
                "code": "309343006",
                "display": "Specialist-e4f90af7"
              }
            ]
          }
        ]
      },
      "request": {
        "method": "POST",
        "url": "PractitionerRole"
      }
    },
    {
      "fullUrl": "urn:uuid:8206fc4d-ffb8-4a1b-92f4-5f6d8cd46672",
      "resource": {
        "resourceType": "Patient",
        "active": true,
        "gender": "male",
        "birthDate": "1985-06-15",
        "name": [
          {
            "use": "official",
            "family": "Doe-e4f90af7",
            "given": [
              "John",
              "Michael"
            ]
          },
          {
            "use": "nickname",
            "given": [
              "Johnny"
            ]
          }
        ],
        "identifier": [
          {
            "system": "http://example.com/mrn",
            "value": "MRN-001-e4f90af7"
          },
          {
            "system": "http://example.com/ssn",
            "value": "SSN-001-e4f90af7"
          }
        ],
        "telecom": [
          {
            "system": "phone",
            "value": "555-1001",
            "use": "home"
          },
          {
            "system": "email",
            "value": "john.doe-e4f90af7@example.com",
            "use": "work"
          }
        ],
        "address": [
          {
            "use": "home",
            "line": [
              "123 Elm St",
              "Apt 4B"
            ],
            "city": "Springfield",
            "state": "IL",
            "postalCode": "62701",
            "country": "US"
          }
        ],
        "managingOrganization": {
          "reference": "urn:uuid:5cbc3a95-62d1-4873-bbef-53cc7e010b6e"
        },
        "generalPractitioner": [
          {
            "reference": "urn:uuid:9b1631d7-ed63-4610-8a25-f06ce670f9ce"
          }
        ],
        "meta": {
          "tag": [
            {
              "system": "http://example.com/tags",
              "code": "vip-e4f90af7"
            }
          ]
        },
        "maritalStatus": {
          "coding": [
            {
              "system": "http://terminology.hl7.org/CodeSystem/v3-MaritalStatus",
              "code": "M",
              "display": "Married"
            }
          ]
        },
        "communication": [
          {
            "language": {
              "coding": [
                {
                  "system": "urn:ietf:bcp:47",
                  "code": "en"
                }
              ]
            }
          }
        ]
      },
      "request": {
        "method": "POST",
        "url": "Patient"
      }
    },
    {
      "fullUrl": "urn:uuid:67fb0b68-2037-4dd5-b264-a1966ec702ef",
      "resource": {
        "resourceType": "Patient",
        "active": true,
        "gender": "female",
        "birthDate": "1990-11-22",
        "name": [
          {
            "use": "official",
            "family": "Smith-e4f90af7",
            "given": [
              "Jane",
              "Elizabeth"
            ]
          }
        ],
        "identifier": [
          {
            "system": "http://example.com/mrn",
            "value": "MRN-002-e4f90af7"
          }
        ],
        "telecom": [
          {
            "system": "phone",
            "value": "555-1002"
          }
        ],
        "address": [
          {
            "use": "home",
            "line": [
              "456 Oak Ave"
            ],
            "city": "Chicago",
            "state": "IL",
            "postalCode": "60601",
            "country": "US"
          }
        ],
        "managingOrganization": {
          "reference": "urn:uuid:5cbc3a95-62d1-4873-bbef-53cc7e010b6e"
        }
      },
      "request": {
        "method": "POST",
        "url": "Patient"
      }
    },
    {
      "fullUrl": "urn:uuid:f4668eeb-2e34-4b88-ba11-2d2351befdf7",
      "resource": {
        "resourceType": "Patient",
        "active": true,
        "gender": "male",
        "birthDate": "1978-01-30",
        "name": [
          {
            "use": "official",
            "family": "Williams-e4f90af7",
            "given": [
              "Robert"
            ]
          }
        ],
        "identifier": [
          {
            "system": "http://example.com/mrn",
            "value": "MRN-003-e4f90af7"
          }
        ],
        "address": [
          {
            "line": [
              "789 Pine Rd"
            ],
            "city": "Shelbyville",
            "state": "IL",
            "postalCode": "62702",
            "country": "US"
          },
          {
            "use": "work",
            "line": [
              "100 Main St"
            ],
            "city": "Springfield",
            "state": "IL"
          }
        ],
        "generalPractitioner": [
          {
            "reference": "urn:uuid:6c93b56f-2d98-4c9e-b06f-9d5afc84d76d"
          }
        ],
        "meta": {
          "tag": [
            {
              "system": "http://example.com/tags",
              "code": "urgent-e4f90af7"
            },
            {
              "system": "http://example.com/tags",
              "code": "flagged-e4f90af7"
            }
          ],
          "security": [
            {
              "system": "http://terminology.hl7.org/CodeSystem/v3-Confidentiality",
              "code": "R"
            }
          ]
        }
      },
      "request": {
        "method": "POST",
        "url": "Patient"
      }
    },
    {
      "fullUrl": "urn:uuid:20894eea-061b-4727-9ea7-2670a615f7a6",
      "resource": {
        "resourceType": "Patient",
        "active": false,
        "gender": "female",
        "birthDate": "2005-08-10",
        "name": [
          {
            "use": "official",
            "family": "Davis-e4f90af7",
            "given": [
              "Alice"
            ]
          }
        ],
        "identifier": [
          {
            "system": "http://example.com/mrn",
            "value": "MRN-004-e4f90af7"
          }
        ],
        "deceasedBoolean": false
      },
      "request": {
        "method": "POST",
        "url": "Patient"
      }
    },
    {
      "fullUrl": "urn:uuid:d6c7b5a4-3e63-461a-9766-687e34e1ccca",
      "resource": {
        "resourceType": "Patient",
        "active": true,
        "gender": "other",
        "birthDate": "2000-03-01",
        "name": [
          {
            "use": "official",
            "family": "Garcia-e4f90af7",
            "given": [
              "Alex",
              "M"
            ]
          }
        ],
        "identifier": [
          {
            "system": "http://example.com/mrn",
            "value": "MRN-005-e4f90af7"
          }
        ],
        "telecom": [
          {
            "system": "email",
            "value": "alex.garcia-e4f90af7@example.com"
          }
        ]
      },
      "request": {
        "method": "POST",
        "url": "Patient"
      }
    },
    {
      "fullUrl": "urn:uuid:0e83e246-27cd-439b-97cf-9da27541e31c",
      "resource": {
        "resourceType": "Patient",
        "active": true,
        "gender": "male",
        "birthDate": "1960-12-25",
        "name": [
          {
            "use": "official",
            "family": "Wilson-e4f90af7",
            "given": [
              "George"
            ]
          }
        ],
        "identifier": [
          {
            "system": "http://example.com/mrn",
            "value": "MRN-006-e4f90af7"
          }
        ],
        "deceasedDateTime": "2025-01-15T10:30:00Z"
      },
      "request": {
        "method": "POST",
        "url": "Patient"
      }
    },
    {
      "fullUrl": "urn:uuid:4f935d85-9c42-4470-a2a5-c53b82a0ae4b",
      "resource": {
        "resourceType": "Patient",
        "active": true,
        "gender": "female",
        "birthDate": "1995-07-04",
        "name": [
          {
            "use": "official",
            "family": "Martinez-e4f90af7",
            "given": [
              "Sofia",
              "Isabella"
            ]
          },
          {
            "use": "maiden",
            "family": "Lopez-e4f90af7"
          }
        ],
        "identifier": [
          {
            "system": "http://example.com/mrn",
            "value": "MRN-007-e4f90af7"
          },
          {
            "system": "http://example.com/passport",
            "value": "PP-007-e4f90af7"
          }
        ],
        "telecom": [
          {
            "system": "phone",
            "value": "555-1007",
            "use": "mobile"
          },
          {
            "system": "phone",
            "value": "555-1008",
            "use": "home"
          },
          {
            "system": "email",
            "value": "sofia-e4f90af7@example.com"
          }
        ],
        "address": [
          {
            "use": "home",
            "line": [
              "1000 Maple Dr"
            ],
            "city": "Capital City",
            "state": "CA",
            "postalCode": "90001",
            "country": "US"
          },
          {
            "use": "temp",
            "city": "TempCity",
            "state": "NY"
          }
        ],
        "contact": [
          {
            "relationship": [
              {
                "coding": [
                  {
                    "system": "http://terminology.hl7.org/CodeSystem/v2-0131",
                    "code": "N"
                  }
                ]
              }
            ],
            "name": {
              "family": "EmergencyContact-e4f90af7",
              "given": [
                "Carlos"
              ]
            },
            "telecom": [
              {
                "system": "phone",
                "value": "555-9999"
              }
            ]
          }
        ]
      },
      "request": {
        "method": "POST",
        "url": "Patient"
      }
    },
    {
      "fullUrl": "urn:uuid:474e5317-62fd-42a9-939c-3d5837e7397b",
      "resource": {
        "resourceType": "Encounter",
        "status": "finished",
        "class": {
          "system": "http://terminology.hl7.org/CodeSystem/v3-ActCode",
          "code": "AMB",
          "display": "Ambulatory-e4f90af7"
        },
        "subject": {
          "reference": "urn:uuid:8206fc4d-ffb8-4a1b-92f4-5f6d8cd46672"
        },
        "serviceProvider": {
          "reference": "urn:uuid:5cbc3a95-62d1-4873-bbef-53cc7e010b6e"
        },
        "participant": [
          {
            "individual": {
              "reference": "urn:uuid:9b1631d7-ed63-4610-8a25-f06ce670f9ce"
            }
          }
        ],
        "period": {
          "start": "2025-01-10T08:00:00Z",
          "end": "2025-01-10T09:00:00Z"
        },
        "type": [
          {
            "coding": [
              {
                "system": "http://snomed.info/sct",
                "code": "308335008",
                "display": "OPD-e4f90af7"
              }
            ]
          }
        ]
      },
      "request": {
        "method": "POST",
        "url": "Encounter"
      }
    },
    {
      "fullUrl": "urn:uuid:9e077213-510a-4531-bb75-5ce43b957abc",
      "resource": {
        "resourceType": "Encounter",
        "status": "finished",
        "class": {
          "system": "http://terminology.hl7.org/CodeSystem/v3-ActCode",
          "code": "IMP"
        },
        "subject": {
          "reference": "urn:uuid:8206fc4d-ffb8-4a1b-92f4-5f6d8cd46672"
        },
        "serviceProvider": {
          "reference": "urn:uuid:5cbc3a95-62d1-4873-bbef-53cc7e010b6e"
        },
        "period": {
          "start": "2025-02-01T10:00:00Z",
          "end": "2025-02-05T14:00:00Z"
        }
      },
      "request": {
        "method": "POST",
        "url": "Encounter"
      }
    },
    {
      "fullUrl": "urn:uuid:23c0cc18-caec-4474-8d99-4c9507bdbb70",
      "resource": {
        "resourceType": "Encounter",
        "status": "finished",
        "class": {
          "system": "http://terminology.hl7.org/CodeSystem/v3-ActCode",
          "code": "AMB"
        },
        "subject": {
          "reference": "urn:uuid:67fb0b68-2037-4dd5-b264-a1966ec702ef"
        },
        "serviceProvider": {
          "reference": "urn:uuid:5cbc3a95-62d1-4873-bbef-53cc7e010b6e"
        },
        "participant": [
          {
            "individual": {
              "reference": "urn:uuid:eba82b45-b2d4-459f-9e5b-94c37b220455"
            }
          }
        ],
        "period": {
          "start": "2025-03-15T14:00:00Z"
        }
      },
      "request": {
        "method": "POST",
        "url": "Encounter"
      }
    },
    {
      "fullUrl": "urn:uuid:18e9edff-25ed-47b7-aa69-84b520461b75",
      "resource": {
        "resourceType": "Encounter",
        "status": "in-progress",
        "class": {
          "system": "http://terminology.hl7.org/CodeSystem/v3-ActCode",
          "code": "EMER"
        },
        "subject": {
          "reference": "urn:uuid:f4668eeb-2e34-4b88-ba11-2d2351befdf7"
        },
        "serviceProvider": {
          "reference": "urn:uuid:5cbc3a95-62d1-4873-bbef-53cc7e010b6e"
        },
        "period": {
          "start": "2026-02-25T10:00:00Z"
        }
      },
      "request": {
        "method": "POST",
        "url": "Encounter"
      }
    },
    {
      "fullUrl": "urn:uuid:7b74b88b-8c3e-4227-b942-2877d773f247",
      "resource": {
        "resourceType": "Encounter",
        "status": "planned",
        "class": {
          "system": "http://terminology.hl7.org/CodeSystem/v3-ActCode",
          "code": "AMB"
        },
        "subject": {
          "reference": "urn:uuid:20894eea-061b-4727-9ea7-2670a615f7a6"
        },
        "period": {
          "start": "2026-03-01T09:00:00Z"
        }
      },
      "request": {
        "method": "POST",
        "url": "Encounter"
      }
    },
    {
      "fullUrl": "urn:uuid:2b1ee420-bb13-48c3-9167-656ed7e29455",
      "resource": {
        "resourceType": "Encounter",
        "status": "finished",
        "class": {
          "system": "http://terminology.hl7.org/CodeSystem/v3-ActCode",
          "code": "AMB"
        },
        "subject": {
          "reference": "urn:uuid:4f935d85-9c42-4470-a2a5-c53b82a0ae4b"
        },
        "serviceProvider": {
          "reference": "urn:uuid:7916425e-df1c-491d-999d-ee99a8eaf8c5"
        },
        "participant": [
          {
            "individual": {
              "reference": "urn:uuid:1986e43f-1afe-4484-bcb1-6d71b57eed62"
            }
          }
        ],
        "period": {
          "start": "2025-06-01T11:00:00Z",
          "end": "2025-06-01T12:00:00Z"
        }
      },
      "request": {
        "method": "POST",
        "url": "Encounter"
      }
    },
    {
      "fullUrl": "urn:uuid:96629e1a-4c9f-4795-8b08-712a2c789304",
      "resource": {
        "resourceType": "Condition",
        "clinicalStatus": {
          "coding": [
            {
              "system": "http://terminology.hl7.org/CodeSystem/condition-clinical",
              "code": "active"
            }
          ]
        },
        "verificationStatus": {
          "coding": [
            {
              "system": "http://terminology.hl7.org/CodeSystem/condition-ver-status",
              "code": "confirmed"
            }
          ]
        },
        "code": {
          "coding": [
            {
              "system": "http://snomed.info/sct",
              "code": "44054006",
              "display": "Type2DM-e4f90af7"
            }
          ]
        },
        "subject": {
          "reference": "urn:uuid:8206fc4d-ffb8-4a1b-92f4-5f6d8cd46672"
        },
        "encounter": {
          "reference": "urn:uuid:474e5317-62fd-42a9-939c-3d5837e7397b"
        },
        "onsetDateTime": "2020-01-01"
      },
      "request": {
        "method": "POST",
        "url": "Condition"
      }
    },
    {
      "fullUrl": "urn:uuid:5202d70c-fa72-428d-b864-7cdcb0cafe93",
      "resource": {
        "resourceType": "Condition",
        "clinicalStatus": {
          "coding": [
            {
              "system": "http://terminology.hl7.org/CodeSystem/condition-clinical",
              "code": "active"
            }
          ]
        },
        "verificationStatus": {
          "coding": [
            {
              "system": "http://terminology.hl7.org/CodeSystem/condition-ver-status",
              "code": "confirmed"
            }
          ]
        },
        "code": {
          "coding": [
            {
              "system": "http://snomed.info/sct",
              "code": "38341003",
              "display": "Hypertension-e4f90af7"
            }
          ]
        },
        "subject": {
          "reference": "urn:uuid:8206fc4d-ffb8-4a1b-92f4-5f6d8cd46672"
        },
        "onsetDateTime": "2018-06-15"
      },
      "request": {
        "method": "POST",
        "url": "Condition"
      }
    },
    {
      "fullUrl": "urn:uuid:b8b24702-c5d2-400a-81f8-1c66f08bfaa0",
      "resource": {
        "resourceType": "Condition",
        "clinicalStatus": {
          "coding": [
            {
              "system": "http://terminology.hl7.org/CodeSystem/condition-clinical",
              "code": "resolved"
            }
          ]
        },
        "code": {
          "coding": [
            {
              "system": "http://snomed.info/sct",
              "code": "195662009",
              "display": "Pneumonia-e4f90af7"
            }
          ]
        },
        "subject": {
          "reference": "urn:uuid:67fb0b68-2037-4dd5-b264-a1966ec702ef"
        },
        "encounter": {
          "reference": "urn:uuid:23c0cc18-caec-4474-8d99-4c9507bdbb70"
        },
        "onsetDateTime": "2025-03-10",
        "abatementDateTime": "2025-03-25"
      },
      "request": {
        "method": "POST",
        "url": "Condition"
      }
    },
    {
      "fullUrl": "urn:uuid:67a04355-8c3d-4160-b689-e93580953c3e",
      "resource": {
        "resourceType": "Condition",
        "clinicalStatus": {
          "coding": [
            {
              "system": "http://terminology.hl7.org/CodeSystem/condition-clinical",
              "code": "active"
            }
          ]
        },
        "code": {
          "coding": [
            {
              "system": "http://snomed.info/sct",
              "code": "73211009",
              "display": "DiabetesI-e4f90af7"
            }
          ]
        },
        "subject": {
          "reference": "urn:uuid:f4668eeb-2e34-4b88-ba11-2d2351befdf7"
        },
        "onsetDateTime": "2010-05-01"
      },
      "request": {
        "method": "POST",
        "url": "Condition"
      }
    },
    {
      "fullUrl": "urn:uuid:f6961bd5-6115-4144-9845-27cb3a36916d",
      "resource": {
        "resourceType": "Condition",
        "clinicalStatus": {
          "coding": [
            {
              "system": "http://terminology.hl7.org/CodeSystem/condition-clinical",
              "code": "active"
            }
          ]
        },
        "code": {
          "coding": [
            {
              "system": "http://snomed.info/sct",
              "code": "195967001",
              "display": "Asthma-e4f90af7"
            }
          ]
        },
        "subject": {
          "reference": "urn:uuid:4f935d85-9c42-4470-a2a5-c53b82a0ae4b"
        },
        "encounter": {
          "reference": "urn:uuid:2b1ee420-bb13-48c3-9167-656ed7e29455"
        },
        "onsetDateTime": "2015-08-20"
      },
      "request": {
        "method": "POST",
        "url": "Condition"
      }
    },
    {
      "fullUrl": "urn:uuid:161ad94f-1e7e-4c92-af7d-cf65283e0dc2",
      "resource": {
        "resourceType": "Observation",
        "status": "final",
        "code": {
          "coding": [
            {
              "system": "http://loinc.org",
              "code": "29463-7",
              "display": "BodyWeight-e4f90af7"
            }
          ]
        },
        "subject": {
          "reference": "urn:uuid:8206fc4d-ffb8-4a1b-92f4-5f6d8cd46672"
        },
        "encounter": {
          "reference": "urn:uuid:474e5317-62fd-42a9-939c-3d5837e7397b"
        },
        "valueQuantity": {
          "value": 75.5,
          "unit": "kg",
          "system": "http://unitsofmeasure.org",
          "code": "kg"
        },
        "effectiveDateTime": "2025-01-10T08:30:00Z",
        "category": [
          {
            "coding": [
              {
                "system": "http://terminology.hl7.org/CodeSystem/observation-category",
                "code": "vital-signs"
              }
            ]
          }
        ]
      },
      "request": {
        "method": "POST",
        "url": "Observation"
      }
    },
    {
      "fullUrl": "urn:uuid:b155cf1b-dc6e-4e8b-860e-80362a0879d5",
      "resource": {
        "resourceType": "Observation",
        "status": "final",
        "code": {
          "coding": [
            {
              "system": "http://loinc.org",
              "code": "8867-4",
              "display": "HeartRate-e4f90af7"
            }
          ]
        },
        "subject": {
          "reference": "urn:uuid:8206fc4d-ffb8-4a1b-92f4-5f6d8cd46672"
        },
        "encounter": {
          "reference": "urn:uuid:474e5317-62fd-42a9-939c-3d5837e7397b"
        },
        "valueQuantity": {
          "value": 72,
          "unit": "/min",
          "system": "http://unitsofmeasure.org",
          "code": "/min"
        },
        "effectiveDateTime": "2025-01-10T08:30:00Z"
      },
      "request": {
        "method": "POST",
        "url": "Observation"
      }
    },
    {
      "fullUrl": "urn:uuid:737caabf-c225-450d-868c-1fe72cf465ad",
      "resource": {
        "resourceType": "Observation",
        "status": "final",
        "code": {
          "coding": [
            {
              "system": "http://loinc.org",
              "code": "85354-9",
              "display": "BP-e4f90af7"
            }
          ]
        },
        "subject": {
          "reference": "urn:uuid:8206fc4d-ffb8-4a1b-92f4-5f6d8cd46672"
        },
        "encounter": {
          "reference": "urn:uuid:9e077213-510a-4531-bb75-5ce43b957abc"
        },
        "component": [
          {
            "code": {
              "coding": [
                {
                  "system": "http://loinc.org",
                  "code": "8480-6"
                }
              ]
            },
            "valueQuantity": {
              "value": 120,
              "unit": "mmHg"
            }
          },
          {
            "code": {
              "coding": [
                {
                  "system": "http://loinc.org",
                  "code": "8462-4"
                }
              ]
            },
            "valueQuantity": {
              "value": 80,
              "unit": "mmHg"
            }
          }
        ],
        "effectiveDateTime": "2025-02-01T10:30:00Z"
      },
      "request": {
        "method": "POST",
        "url": "Observation"
      }
    },
    {
      "fullUrl": "urn:uuid:ecd05471-1cf6-4dfd-a622-25d0ad37878c",
      "resource": {
        "resourceType": "Observation",
        "status": "final",
        "code": {
          "coding": [
            {
              "system": "http://loinc.org",
              "code": "2339-0",
              "display": "Glucose-e4f90af7"
            }
          ]
        },
        "subject": {
          "reference": "urn:uuid:67fb0b68-2037-4dd5-b264-a1966ec702ef"
        },
        "encounter": {
          "reference": "urn:uuid:23c0cc18-caec-4474-8d99-4c9507bdbb70"
        },
        "valueQuantity": {
          "value": 95,
          "unit": "mg/dL"
        },
        "effectiveDateTime": "2025-03-15T14:30:00Z",
        "interpretation": [
          {
            "coding": [
              {
                "system": "http://terminology.hl7.org/CodeSystem/v3-ObservationInterpretation",
                "code": "N",
                "display": "Normal"
              }
            ]
          }
        ]
      },
      "request": {
        "method": "POST",
        "url": "Observation"
      }
    },
    {
      "fullUrl": "urn:uuid:ee14fcc7-b225-4737-be39-f14215f038fc",
      "resource": {
        "resourceType": "Observation",
        "status": "final",
        "code": {
          "coding": [
            {
              "system": "http://loinc.org",
              "code": "718-7",
              "display": "Hemoglobin-e4f90af7"
            }
          ]
        },
        "subject": {
          "reference": "urn:uuid:f4668eeb-2e34-4b88-ba11-2d2351befdf7"
        },
        "valueQuantity": {
          "value": 14.2,
          "unit": "g/dL"
        },
        "effectiveDateTime": "2025-04-01"
      },
      "request": {
        "method": "POST",
        "url": "Observation"
      }
    },
    {
      "fullUrl": "urn:uuid:b964727c-c4cd-42b3-b336-aa7f7088fd10",
      "resource": {
        "resourceType": "Observation",
        "status": "preliminary",
        "code": {
          "coding": [
            {
              "system": "http://loinc.org",
              "code": "6690-2",
              "display": "WBC-e4f90af7"
            }
          ]
        },
        "subject": {
          "reference": "urn:uuid:f4668eeb-2e34-4b88-ba11-2d2351befdf7"
        },
        "encounter": {
          "reference": "urn:uuid:18e9edff-25ed-47b7-aa69-84b520461b75"
        },
        "valueQuantity": {
          "value": 8500,
          "unit": "/uL"
        },
        "effectiveDateTime": "2026-02-25T10:30:00Z"
      },
      "request": {
        "method": "POST",
        "url": "Observation"
      }
    },
    {
      "fullUrl": "urn:uuid:bce80c6a-560d-4f6c-945e-de4ee7669258",
      "resource": {
        "resourceType": "Observation",
        "status": "final",
        "code": {
          "coding": [
            {
              "system": "http://loinc.org",
              "code": "39156-5",
              "display": "BMI-e4f90af7"
            }
          ]
        },
        "subject": {
          "reference": "urn:uuid:4f935d85-9c42-4470-a2a5-c53b82a0ae4b"
        },
        "encounter": {
          "reference": "urn:uuid:2b1ee420-bb13-48c3-9167-656ed7e29455"
        },
        "valueQuantity": {
          "value": 22.1,
          "unit": "kg/m2"
        },
        "effectiveDateTime": "2025-06-01T11:30:00Z"
      },
      "request": {
        "method": "POST",
        "url": "Observation"
      }
    },
    {
      "fullUrl": "urn:uuid:a1f3ead7-32ef-46e0-b935-aa785ee5efaa",
      "resource": {
        "resourceType": "Observation",
        "status": "final",
        "code": {
          "coding": [
            {
              "system": "http://loinc.org",
              "code": "8310-5",
              "display": "BodyTemp-e4f90af7"
            }
          ]
        },
        "subject": {
          "reference": "urn:uuid:4f935d85-9c42-4470-a2a5-c53b82a0ae4b"
        },
        "valueQuantity": {
          "value": 37.2,
          "unit": "Cel"
        },
        "effectiveDateTime": "2025-06-01T11:35:00Z"
      },
      "request": {
        "method": "POST",
        "url": "Observation"
      }
    },
    {
      "fullUrl": "urn:uuid:9a9641cb-9266-4a88-a331-6b343303c5da",
      "resource": {
        "resourceType": "DiagnosticReport",
        "status": "final",
        "code": {
          "coding": [
            {
              "system": "http://loinc.org",
              "code": "58410-2",
              "display": "CBC-e4f90af7"
            }
          ]
        },
        "subject": {
          "reference": "urn:uuid:8206fc4d-ffb8-4a1b-92f4-5f6d8cd46672"
        },
        "encounter": {
          "reference": "urn:uuid:474e5317-62fd-42a9-939c-3d5837e7397b"
        },
        "result": [
          {
            "reference": "urn:uuid:161ad94f-1e7e-4c92-af7d-cf65283e0dc2"
          },
          {
            "reference": "urn:uuid:b155cf1b-dc6e-4e8b-860e-80362a0879d5"
          }
        ],
        "effectiveDateTime": "2025-01-10T09:00:00Z",
        "issued": "2025-01-10T10:00:00Z"
      },
      "request": {
        "method": "POST",
        "url": "DiagnosticReport"
      }
    },
    {
      "fullUrl": "urn:uuid:04946334-c90a-4915-9c20-fc449f2c819e",
      "resource": {
        "resourceType": "DiagnosticReport",
        "status": "final",
        "code": {
          "coding": [
            {
              "system": "http://loinc.org",
              "code": "24323-8",
              "display": "CMP-e4f90af7"
            }
          ]
        },
        "subject": {
          "reference": "urn:uuid:8206fc4d-ffb8-4a1b-92f4-5f6d8cd46672"
        },
        "encounter": {
          "reference": "urn:uuid:9e077213-510a-4531-bb75-5ce43b957abc"
        },
        "result": [
          {
            "reference": "urn:uuid:737caabf-c225-450d-868c-1fe72cf465ad"
          }
        ],
        "effectiveDateTime": "2025-02-01T11:00:00Z"
      },
      "request": {
        "method": "POST",
        "url": "DiagnosticReport"
      }
    },
    {
      "fullUrl": "urn:uuid:81796f4f-cf41-4dd8-bfdb-8fd0008679cb",
      "resource": {
        "resourceType": "DiagnosticReport",
        "status": "final",
        "code": {
          "coding": [
            {
              "system": "http://loinc.org",
              "code": "2339-0",
              "display": "GlucoseReport-e4f90af7"
            }
          ]
        },
        "subject": {
          "reference": "urn:uuid:67fb0b68-2037-4dd5-b264-a1966ec702ef"
        },
        "result": [
          {
            "reference": "urn:uuid:ecd05471-1cf6-4dfd-a622-25d0ad37878c"
          }
        ],
        "effectiveDateTime": "2025-03-15T15:00:00Z"
      },
      "request": {
        "method": "POST",
        "url": "DiagnosticReport"
      }
    },
    {
      "fullUrl": "urn:uuid:4de3d11f-2ad1-46e3-9595-c471ce48f7dd",
      "resource": {
        "resourceType": "DiagnosticReport",
        "status": "preliminary",
        "code": {
          "coding": [
            {
              "system": "http://loinc.org",
              "code": "58410-2",
              "display": "CBC2-e4f90af7"
            }
          ]
        },
        "subject": {
          "reference": "urn:uuid:f4668eeb-2e34-4b88-ba11-2d2351befdf7"
        },
        "result": [
          {
            "reference": "urn:uuid:ee14fcc7-b225-4737-be39-f14215f038fc"
          },
          {
            "reference": "urn:uuid:b964727c-c4cd-42b3-b336-aa7f7088fd10"
          }
        ],
        "effectiveDateTime": "2026-02-25T11:00:00Z"
      },
      "request": {
        "method": "POST",
        "url": "DiagnosticReport"
      }
    },
    {
      "fullUrl": "urn:uuid:d740f080-7590-470b-a223-627264f6230c",
      "resource": {
        "resourceType": "DiagnosticReport",
        "status": "final",
        "code": {
          "coding": [
            {
              "system": "http://loinc.org",
              "code": "55399-0",
              "display": "Vitals-e4f90af7"
            }
          ]
        },
        "subject": {
          "reference": "urn:uuid:4f935d85-9c42-4470-a2a5-c53b82a0ae4b"
        },
        "encounter": {
          "reference": "urn:uuid:2b1ee420-bb13-48c3-9167-656ed7e29455"
        },
        "result": [
          {
            "reference": "urn:uuid:bce80c6a-560d-4f6c-945e-de4ee7669258"
          },
          {
            "reference": "urn:uuid:a1f3ead7-32ef-46e0-b935-aa785ee5efaa"
          }
        ],
        "effectiveDateTime": "2025-06-01T12:00:00Z"
      },
      "request": {
        "method": "POST",
        "url": "DiagnosticReport"
      }
    },
    {
      "fullUrl": "urn:uuid:36a744f3-63de-428f-80c5-3bc74e2c3936",
      "resource": {
        "resourceType": "MedicationRequest",
        "status": "active",
        "intent": "order",
        "medicationReference": {
          "reference": "urn:uuid:45d9a636-e39a-4551-9ac3-f852e6bf8767"
        },
        "subject": {
          "reference": "urn:uuid:8206fc4d-ffb8-4a1b-92f4-5f6d8cd46672"
        },
        "encounter": {
          "reference": "urn:uuid:474e5317-62fd-42a9-939c-3d5837e7397b"
        },
        "requester": {
          "reference": "urn:uuid:9b1631d7-ed63-4610-8a25-f06ce670f9ce"
        },
        "authoredOn": "2025-01-10",
        "dosageInstruction": [
          {
            "text": "Take 500mg PRN-e4f90af7",
            "timing": {
              "repeat": {
                "frequency": 3,
                "period": 1,
                "periodUnit": "d"
              }
            }
          }
        ]
      },
      "request": {
        "method": "POST",
        "url": "MedicationRequest"
      }
    },
    {
      "fullUrl": "urn:uuid:7f6e58ff-bbae-4dcf-9e8f-faad1d9d923a",
      "resource": {
        "resourceType": "MedicationRequest",
        "status": "active",
        "intent": "order",
        "medicationReference": {
          "reference": "urn:uuid:48f9eea6-9c55-4751-97f7-7a24d17536f1"
        },
        "subject": {
          "reference": "urn:uuid:8206fc4d-ffb8-4a1b-92f4-5f6d8cd46672"
        },
        "requester": {
          "reference": "urn:uuid:9b1631d7-ed63-4610-8a25-f06ce670f9ce"
        },
        "authoredOn": "2025-02-01",
        "dosageInstruction": [
          {
            "text": "250mg TID-e4f90af7"
          }
        ]
      },
      "request": {
        "method": "POST",
        "url": "MedicationRequest"
      }
    },
    {
      "fullUrl": "urn:uuid:4103a555-a4be-4bc0-a674-e2e9edb7ccb3",
      "resource": {
        "resourceType": "MedicationRequest",
        "status": "active",
        "intent": "order",
        "medicationReference": {
          "reference": "urn:uuid:25e80ba7-89f2-4122-bab4-9dff749aab7c"
        },
        "subject": {
          "reference": "urn:uuid:67fb0b68-2037-4dd5-b264-a1966ec702ef"
        },
        "requester": {
          "reference": "urn:uuid:eba82b45-b2d4-459f-9e5b-94c37b220455"
        },
        "authoredOn": "2025-03-15"
      },
      "request": {
        "method": "POST",
        "url": "MedicationRequest"
      }
    },
    {
      "fullUrl": "urn:uuid:19ee5d67-6ba5-4c89-8ed9-664b938c4b54",
      "resource": {
        "resourceType": "MedicationRequest",
        "status": "stopped",
        "intent": "order",
        "medicationReference": {
          "reference": "urn:uuid:be1bcbef-386a-4cd5-99f8-e2e92e29c0bf"
        },
        "subject": {
          "reference": "urn:uuid:f4668eeb-2e34-4b88-ba11-2d2351befdf7"
        },
        "requester": {
          "reference": "urn:uuid:6c93b56f-2d98-4c9e-b06f-9d5afc84d76d"
        },
        "authoredOn": "2025-04-01"
      },
      "request": {
        "method": "POST",
        "url": "MedicationRequest"
      }
    },
    {
      "fullUrl": "urn:uuid:a37fd799-50c8-4e8b-ace2-a4cd6d2207f2",
      "resource": {
        "resourceType": "MedicationRequest",
        "status": "active",
        "intent": "plan",
        "medicationReference": {
          "reference": "urn:uuid:d6fe5db6-b56b-442c-8032-060d9492aae9"
        },
        "subject": {
          "reference": "urn:uuid:4f935d85-9c42-4470-a2a5-c53b82a0ae4b"
        },
        "encounter": {
          "reference": "urn:uuid:2b1ee420-bb13-48c3-9167-656ed7e29455"
        },
        "requester": {
          "reference": "urn:uuid:1986e43f-1afe-4484-bcb1-6d71b57eed62"
        },
        "authoredOn": "2025-06-01"
      },
      "request": {
        "method": "POST",
        "url": "MedicationRequest"
      }
    },
    {
      "fullUrl": "urn:uuid:45d9a636-e39a-4551-9ac3-f852e6bf8767",
      "resource": {
        "resourceType": "Medication",
        "code": {
          "coding": [
            {
              "system": "http://www.nlm.nih.gov/research/umls/rxnorm",
              "code": "1049502",
              "display": "Acetaminophen-e4f90af7"
            }
          ]
        },
        "status": "active"
      },
      "request": {
        "method": "POST",
        "url": "Medication"
      }
    },
    {
      "fullUrl": "urn:uuid:48f9eea6-9c55-4751-97f7-7a24d17536f1",
      "resource": {
        "resourceType": "Medication",
        "code": {
          "coding": [
            {
              "system": "http://www.nlm.nih.gov/research/umls/rxnorm",
              "code": "197361",
              "display": "Amoxicillin-e4f90af7"
            }
          ]
        },
        "status": "active",
        "manufacturer": {
          "reference": "urn:uuid:894ffa68-4d58-442b-9446-a632177f1f24"
        }
      },
      "request": {
        "method": "POST",
        "url": "Medication"
      }
    },
    {
      "fullUrl": "urn:uuid:25e80ba7-89f2-4122-bab4-9dff749aab7c",
      "resource": {
        "resourceType": "Medication",
        "code": {
          "coding": [
            {
              "system": "http://www.nlm.nih.gov/research/umls/rxnorm",
              "code": "310965",
              "display": "Lisinopril-e4f90af7"
            }
          ]
        },
        "status": "active"
      },
      "request": {
        "method": "POST",
        "url": "Medication"
      }
    },
    {
      "fullUrl": "urn:uuid:be1bcbef-386a-4cd5-99f8-e2e92e29c0bf",
      "resource": {
        "resourceType": "Medication",
        "code": {
          "coding": [
            {
              "system": "http://www.nlm.nih.gov/research/umls/rxnorm",
              "code": "860975",
              "display": "Metformin-e4f90af7"
            }
          ]
        },
        "status": "active"
      },
      "request": {
        "method": "POST",
        "url": "Medication"
      }
    },
    {
      "fullUrl": "urn:uuid:d6fe5db6-b56b-442c-8032-060d9492aae9",
      "resource": {
        "resourceType": "Medication",
        "code": {
          "coding": [
            {
              "system": "http://www.nlm.nih.gov/research/umls/rxnorm",
              "code": "198440",
              "display": "Omeprazole-e4f90af7"
            }
          ]
        },
        "status": "inactive"
      },
      "request": {
        "method": "POST",
        "url": "Medication"
      }
    },
    {
      "fullUrl": "urn:uuid:e7bde9bc-c229-4214-b2d6-fc0db2213cb1",
      "resource": {
        "resourceType": "AllergyIntolerance",
        "clinicalStatus": {
          "coding": [
            {
              "system": "http://terminology.hl7.org/CodeSystem/allergyintolerance-clinical",
              "code": "active"
            }
          ]
        },
        "verificationStatus": {
          "coding": [
            {
              "system": "http://terminology.hl7.org/CodeSystem/allergyintolerance-verification",
              "code": "confirmed"
            }
          ]
        },
        "type": "allergy",
        "category": [
          "medication"
        ],
        "code": {
          "coding": [
            {
              "system": "http://snomed.info/sct",
              "code": "387458008",
              "display": "Aspirin-e4f90af7"
            }
          ]
        },
        "patient": {
          "reference": "urn:uuid:8206fc4d-ffb8-4a1b-92f4-5f6d8cd46672"
        },
        "onsetDateTime": "2015-01-01",
        "reaction": [
          {
            "manifestation": [
              {
                "coding": [
                  {
                    "system": "http://snomed.info/sct",
                    "code": "271807003",
                    "display": "Rash"
                  }
                ]
              }
            ],
            "severity": "moderate"
          }
        ]
      },
      "request": {
        "method": "POST",
        "url": "AllergyIntolerance"
      }
    },
    {
      "fullUrl": "urn:uuid:1949734d-3bb2-4f3c-a0a7-c50cb14a6bbe",
      "resource": {
        "resourceType": "AllergyIntolerance",
        "clinicalStatus": {
          "coding": [
            {
              "system": "http://terminology.hl7.org/CodeSystem/allergyintolerance-clinical",
              "code": "active"
            }
          ]
        },
        "type": "allergy",
        "category": [
          "food"
        ],
        "code": {
          "coding": [
            {
              "system": "http://snomed.info/sct",
              "code": "91935009",
              "display": "Peanut-e4f90af7"
            }
          ]
        },
        "patient": {
          "reference": "urn:uuid:8206fc4d-ffb8-4a1b-92f4-5f6d8cd46672"
        }
      },
      "request": {
        "method": "POST",
        "url": "AllergyIntolerance"
      }
    },
    {
      "fullUrl": "urn:uuid:5119bd3f-6e1d-4661-93a7-29ebe965be45",
      "resource": {
        "resourceType": "AllergyIntolerance",
        "clinicalStatus": {
          "coding": [
            {
              "system": "http://terminology.hl7.org/CodeSystem/allergyintolerance-clinical",
              "code": "active"
            }
          ]
        },
        "type": "intolerance",
        "category": [
          "medication"
        ],
        "code": {
          "coding": [
            {
              "system": "http://snomed.info/sct",
              "code": "372687004",
              "display": "Penicillin-e4f90af7"
            }
          ]
        },
        "patient": {
          "reference": "urn:uuid:67fb0b68-2037-4dd5-b264-a1966ec702ef"
        }
      },
      "request": {
        "method": "POST",
        "url": "AllergyIntolerance"
      }
    },
    {
      "fullUrl": "urn:uuid:23b6e80c-d524-4620-a704-98dcaa98d982",
      "resource": {
        "resourceType": "AllergyIntolerance",
        "clinicalStatus": {
          "coding": [
            {
              "system": "http://terminology.hl7.org/CodeSystem/allergyintolerance-clinical",
              "code": "resolved"
            }
          ]
        },
        "code": {
          "coding": [
            {
              "system": "http://snomed.info/sct",
              "code": "264295007",
              "display": "Latex-e4f90af7"
            }
          ]
        },
        "patient": {
          "reference": "urn:uuid:f4668eeb-2e34-4b88-ba11-2d2351befdf7"
        }
      },
      "request": {
        "method": "POST",
        "url": "AllergyIntolerance"
      }
    },
    {
      "fullUrl": "urn:uuid:573e5ed6-aeed-4b53-97c6-5cd8adffc2c8",
      "resource": {
        "resourceType": "AllergyIntolerance",
        "clinicalStatus": {
          "coding": [
            {
              "system": "http://terminology.hl7.org/CodeSystem/allergyintolerance-clinical",
              "code": "active"
            }
          ]
        },
        "type": "allergy",
        "category": [
          "environment"
        ],
        "code": {
          "coding": [
            {
              "system": "http://snomed.info/sct",
              "code": "256259004",
              "display": "Pollen-e4f90af7"
            }
          ]
        },
        "patient": {
          "reference": "urn:uuid:4f935d85-9c42-4470-a2a5-c53b82a0ae4b"
        }
      },
      "request": {
        "method": "POST",
        "url": "AllergyIntolerance"
      }
    },
    {
      "fullUrl": "urn:uuid:5e5a0edd-4120-4b5d-b7a9-d593f0b6e20d",
      "resource": {
        "resourceType": "Procedure",
        "status": "completed",
        "code": {
          "coding": [
            {
              "system": "http://snomed.info/sct",
              "code": "80146002",
              "display": "Appendectomy-e4f90af7"
            }
          ]
        },
        "subject": {
          "reference": "urn:uuid:8206fc4d-ffb8-4a1b-92f4-5f6d8cd46672"
        },
        "encounter": {
          "reference": "urn:uuid:9e077213-510a-4531-bb75-5ce43b957abc"
        },
        "performedDateTime": "2025-02-03T14:00:00Z",
        "performer": [
          {
            "actor": {
              "reference": "urn:uuid:6c93b56f-2d98-4c9e-b06f-9d5afc84d76d"
            }
          }
        ]
      },
      "request": {
        "method": "POST",
        "url": "Procedure"
      }
    },
    {
      "fullUrl": "urn:uuid:364c40f8-ae03-4892-aadb-ce40c3b5502c",
      "resource": {
        "resourceType": "Procedure",
        "status": "completed",
        "code": {
          "coding": [
            {
              "system": "http://snomed.info/sct",
              "code": "232717009",
              "display": "Coronography-e4f90af7"
            }
          ]
        },
        "subject": {
          "reference": "urn:uuid:8206fc4d-ffb8-4a1b-92f4-5f6d8cd46672"
        },
        "performedPeriod": {
          "start": "2025-02-04T08:00:00Z",
          "end": "2025-02-04T10:00:00Z"
        }
      },
      "request": {
        "method": "POST",
        "url": "Procedure"
      }
    },
    {
      "fullUrl": "urn:uuid:68270bb1-3f1e-4c36-b463-5183a6b21483",
      "resource": {
        "resourceType": "Procedure",
        "status": "completed",
        "code": {
          "coding": [
            {
              "system": "http://snomed.info/sct",
              "code": "36969009",
              "display": "BloodDraw-e4f90af7"
            }
          ]
        },
        "subject": {
          "reference": "urn:uuid:67fb0b68-2037-4dd5-b264-a1966ec702ef"
        },
        "encounter": {
          "reference": "urn:uuid:23c0cc18-caec-4474-8d99-4c9507bdbb70"
        },
        "performedDateTime": "2025-03-15T14:15:00Z"
      },
      "request": {
        "method": "POST",
        "url": "Procedure"
      }
    },
    {
      "fullUrl": "urn:uuid:d5adcd81-e8d2-4dfd-baf8-f3b0aa63f4a5",
      "resource": {
        "resourceType": "Procedure",
        "status": "in-progress",
        "code": {
          "coding": [
            {
              "system": "http://snomed.info/sct",
              "code": "418891003",
              "display": "Dressing-e4f90af7"
            }
          ]
        },
        "subject": {
          "reference": "urn:uuid:f4668eeb-2e34-4b88-ba11-2d2351befdf7"
        },
        "encounter": {
          "reference": "urn:uuid:18e9edff-25ed-47b7-aa69-84b520461b75"
        },
        "performedDateTime": "2026-02-25T11:00:00Z"
      },
      "request": {
        "method": "POST",
        "url": "Procedure"
      }
    },
    {
      "fullUrl": "urn:uuid:e859f6a5-3a04-4875-ba37-b85a808407f1",
      "resource": {
        "resourceType": "Procedure",
        "status": "completed",
        "code": {
          "coding": [
            {
              "system": "http://snomed.info/sct",
              "code": "274025005",
              "display": "EKG-e4f90af7"
            }
          ]
        },
        "subject": {
          "reference": "urn:uuid:4f935d85-9c42-4470-a2a5-c53b82a0ae4b"
        },
        "encounter": {
          "reference": "urn:uuid:2b1ee420-bb13-48c3-9167-656ed7e29455"
        },
        "performedDateTime": "2025-06-01T11:45:00Z"
      },
      "request": {
        "method": "POST",
        "url": "Procedure"
      }
    },
    {
      "fullUrl": "urn:uuid:92a64efd-83b1-44c6-84c5-6e6c5c738f96",
      "resource": {
        "resourceType": "ServiceRequest",
        "status": "active",
        "intent": "order",
        "code": {
          "coding": [
            {
              "system": "http://snomed.info/sct",
              "code": "26604007",
              "display": "FBC-e4f90af7"
            }
          ]
        },
        "subject": {
          "reference": "urn:uuid:8206fc4d-ffb8-4a1b-92f4-5f6d8cd46672"
        },
        "encounter": {
          "reference": "urn:uuid:474e5317-62fd-42a9-939c-3d5837e7397b"
        },
        "requester": {
          "reference": "urn:uuid:9b1631d7-ed63-4610-8a25-f06ce670f9ce"
        },
        "authoredOn": "2025-01-10"
      },
      "request": {
        "method": "POST",
        "url": "ServiceRequest"
      }
    },
    {
      "fullUrl": "urn:uuid:e4fd46d4-c7b5-4bd6-95a0-310fc30a0c7d",
      "resource": {
        "resourceType": "ServiceRequest",
        "status": "completed",
        "intent": "order",
        "code": {
          "coding": [
            {
              "system": "http://snomed.info/sct",
              "code": "77477000",
              "display": "CTScan-e4f90af7"
            }
          ]
        },
        "subject": {
          "reference": "urn:uuid:8206fc4d-ffb8-4a1b-92f4-5f6d8cd46672"
        },
        "encounter": {
          "reference": "urn:uuid:9e077213-510a-4531-bb75-5ce43b957abc"
        },
        "authoredOn": "2025-02-01"
      },
      "request": {
        "method": "POST",
        "url": "ServiceRequest"
      }
    },
    {
      "fullUrl": "urn:uuid:ed45108a-d5e9-411e-bf72-06a5cc6d8e61",
      "resource": {
        "resourceType": "ServiceRequest",
        "status": "active",
        "intent": "order",
        "code": {
          "coding": [
            {
              "system": "http://snomed.info/sct",
              "code": "104001",
              "display": "Excision-e4f90af7"
            }
          ]
        },
        "subject": {
          "reference": "urn:uuid:67fb0b68-2037-4dd5-b264-a1966ec702ef"
        },
        "authoredOn": "2025-03-15"
      },
      "request": {
        "method": "POST",
        "url": "ServiceRequest"
      }
    },
    {
      "fullUrl": "urn:uuid:d8047f9c-83c5-449f-a9e5-b50d740f4964",
      "resource": {
        "resourceType": "ServiceRequest",
        "status": "active",
        "intent": "order",
        "code": {
          "coding": [
            {
              "system": "http://snomed.info/sct",
              "code": "252275004",
              "display": "Imaging-e4f90af7"
            }
          ]
        },
        "subject": {
          "reference": "urn:uuid:f4668eeb-2e34-4b88-ba11-2d2351befdf7"
        },
        "encounter": {
          "reference": "urn:uuid:18e9edff-25ed-47b7-aa69-84b520461b75"
        },
        "authoredOn": "2026-02-25"
      },
      "request": {
        "method": "POST",
        "url": "ServiceRequest"
      }
    },
    {
      "fullUrl": "urn:uuid:0a62ded8-8d24-46bf-b5b5-7134cc5f437e",
      "resource": {
        "resourceType": "ServiceRequest",
        "status": "active",
        "intent": "plan",
        "code": {
          "coding": [
            {
              "system": "http://snomed.info/sct",
              "code": "409063005",
              "display": "Counseling-e4f90af7"
            }
          ]
        },
        "subject": {
          "reference": "urn:uuid:4f935d85-9c42-4470-a2a5-c53b82a0ae4b"
        },
        "authoredOn": "2025-06-01"
      },
      "request": {
        "method": "POST",
        "url": "ServiceRequest"
      }
    },
    {
      "fullUrl": "urn:uuid:6508514b-3e99-4396-8822-f99d4fd4a7f0",
      "resource": {
        "resourceType": "CarePlan",
        "status": "active",
        "intent": "plan",
        "title": "DM Management-e4f90af7",
        "subject": {
          "reference": "urn:uuid:8206fc4d-ffb8-4a1b-92f4-5f6d8cd46672"
        },
        "encounter": {
          "reference": "urn:uuid:474e5317-62fd-42a9-939c-3d5837e7397b"
        },
        "addresses": [
          {
            "reference": "urn:uuid:96629e1a-4c9f-4795-8b08-712a2c789304"
          }
        ],
        "category": [
          {
            "coding": [
              {
                "system": "http://hl7.org/fhir/us/core/CodeSystem/careplan-category",
                "code": "assess-plan"
              }
            ]
          }
        ]
      },
      "request": {
        "method": "POST",
        "url": "CarePlan"
      }
    },
    {
      "fullUrl": "urn:uuid:5cce78d2-8e14-4cd6-85e3-e768a3379b74",
      "resource": {
        "resourceType": "CarePlan",
        "status": "active",
        "intent": "plan",
        "title": "HTN Management-e4f90af7",
        "subject": {
          "reference": "urn:uuid:8206fc4d-ffb8-4a1b-92f4-5f6d8cd46672"
        },
        "addresses": [
          {
            "reference": "urn:uuid:5202d70c-fa72-428d-b864-7cdcb0cafe93"
          }
        ]
      },
      "request": {
        "method": "POST",
        "url": "CarePlan"
      }
    },
    {
      "fullUrl": "urn:uuid:a75073b1-b647-494e-ae0c-ae93a54cdb28",
      "resource": {
        "resourceType": "CarePlan",
        "status": "completed",
        "intent": "plan",
        "title": "Pneumonia Recovery-e4f90af7",
        "subject": {
          "reference": "urn:uuid:67fb0b68-2037-4dd5-b264-a1966ec702ef"
        },
        "addresses": [
          {
            "reference": "urn:uuid:b8b24702-c5d2-400a-81f8-1c66f08bfaa0"
          }
        ]
      },
      "request": {
        "method": "POST",
        "url": "CarePlan"
      }
    },
    {
      "fullUrl": "urn:uuid:9ef7a271-e369-425d-924e-f811afada318",
      "resource": {
        "resourceType": "CarePlan",
        "status": "active",
        "intent": "plan",
        "title": "DM1 Care-e4f90af7",
        "subject": {
          "reference": "urn:uuid:f4668eeb-2e34-4b88-ba11-2d2351befdf7"
        },
        "addresses": [
          {
            "reference": "urn:uuid:67a04355-8c3d-4160-b689-e93580953c3e"
          }
        ]
      },
      "request": {
        "method": "POST",
        "url": "CarePlan"
      }
    },
    {
      "fullUrl": "urn:uuid:22504d3e-632b-4364-90b7-57b12ed8bbfb",
      "resource": {
        "resourceType": "CarePlan",
        "status": "active",
        "intent": "plan",
        "title": "Asthma Action-e4f90af7",
        "subject": {
          "reference": "urn:uuid:4f935d85-9c42-4470-a2a5-c53b82a0ae4b"
        },
        "encounter": {
          "reference": "urn:uuid:2b1ee420-bb13-48c3-9167-656ed7e29455"
        },
        "addresses": [
          {
            "reference": "urn:uuid:f6961bd5-6115-4144-9845-27cb3a36916d"
          }
        ]
      },
      "request": {
        "method": "POST",
        "url": "CarePlan"
      }
    },
    {
      "fullUrl": "urn:uuid:b75ef560-e504-423f-883c-2130ba4a7590",
      "resource": {
        "resourceType": "Immunization",
        "status": "completed",
        "vaccineCode": {
          "coding": [
            {
              "system": "http://hl7.org/fhir/sid/cvx",
              "code": "208",
              "display": "COVID19-e4f90af7"
            }
          ]
        },
        "patient": {
          "reference": "urn:uuid:8206fc4d-ffb8-4a1b-92f4-5f6d8cd46672"
        },
        "occurrenceDateTime": "2025-01-15T09:00:00Z",
        "encounter": {
          "reference": "urn:uuid:474e5317-62fd-42a9-939c-3d5837e7397b"
        }
      },
      "request": {
        "method": "POST",
        "url": "Immunization"
      }
    },
    {
      "fullUrl": "urn:uuid:0c7d0b88-84f3-4e2d-9d75-3810c89c4232",
      "resource": {
        "resourceType": "Immunization",
        "status": "completed",
        "vaccineCode": {
          "coding": [
            {
              "system": "http://hl7.org/fhir/sid/cvx",
              "code": "141",
              "display": "Influenza-e4f90af7"
            }
          ]
        },
        "patient": {
          "reference": "urn:uuid:8206fc4d-ffb8-4a1b-92f4-5f6d8cd46672"
        },
        "occurrenceDateTime": "2025-10-01"
      },
      "request": {
        "method": "POST",
        "url": "Immunization"
      }
    },
    {
      "fullUrl": "urn:uuid:fc95f4d7-d7b0-405c-b7c2-ca94ff064cff",
      "resource": {
        "resourceType": "Immunization",
        "status": "completed",
        "vaccineCode": {
          "coding": [
            {
              "system": "http://hl7.org/fhir/sid/cvx",
              "code": "08",
              "display": "HepB-e4f90af7"
            }
          ]
        },
        "patient": {
          "reference": "urn:uuid:67fb0b68-2037-4dd5-b264-a1966ec702ef"
        },
        "occurrenceDateTime": "2025-04-01"
      },
      "request": {
        "method": "POST",
        "url": "Immunization"
      }
    },
    {
      "fullUrl": "urn:uuid:0398824b-6f6f-4d8e-a15a-1adca8bb8230",
      "resource": {
        "resourceType": "Immunization",
        "status": "not-done",
        "vaccineCode": {
          "coding": [
            {
              "system": "http://hl7.org/fhir/sid/cvx",
              "code": "03",
              "display": "MMR-e4f90af7"
            }
          ]
        },
        "patient": {
          "reference": "urn:uuid:20894eea-061b-4727-9ea7-2670a615f7a6"
        },
        "occurrenceDateTime": "2025-05-01",
        "statusReason": {
          "coding": [
            {
              "system": "http://terminology.hl7.org/CodeSystem/v3-ActReason",
              "code": "MEDPREC"
            }
          ]
        }
      },
      "request": {
        "method": "POST",
        "url": "Immunization"
      }
    },
    {
      "fullUrl": "urn:uuid:e8fd4124-f91b-4057-86a0-45c67ec63538",
      "resource": {
        "resourceType": "Immunization",
        "status": "completed",
        "vaccineCode": {
          "coding": [
            {
              "system": "http://hl7.org/fhir/sid/cvx",
              "code": "113",
              "display": "Tdap-e4f90af7"
            }
          ]
        },
        "patient": {
          "reference": "urn:uuid:4f935d85-9c42-4470-a2a5-c53b82a0ae4b"
        },
        "occurrenceDateTime": "2025-06-01",
        "encounter": {
          "reference": "urn:uuid:2b1ee420-bb13-48c3-9167-656ed7e29455"
        }
      },
      "request": {
        "method": "POST",
        "url": "Immunization"
      }
    }
  ]
}