{
  "resourceType": "Bundle",
  "type": "transaction",
  "entry": [
    {
      "fullUrl": "urn:uuid:6c4e3ca9-1197-4523-a7df-991eca857e2f",
      "resource": {
        "resourceType": "Organization",
        "name": "Central Hospital-ac051abd",
        "identifier": [
          {
            "system": "http://example.com/org",
            "value": "ORG-001-ac051abd"
          }
        ],
        "type": [
          {
            "coding": [
              {
                "system": "http://terminology.hl7.org/CodeSystem/organization-type",
                "code": "prov"
              }
            ]
          }
        ],
        "telecom": [
          {
            "system": "phone",
            "value": "555-0100"
          }
        ],
        "address": [
          {
            "line": [
              "100 Main St"
            ],
            "city": "Springfield",
            "state": "IL",
            "postalCode": "62701",
            "country": "US"
          }
        ]
      },
      "request": {
        "method": "POST",
        "url": "Organization"
      }
    },
    {
      "fullUrl": "urn:uuid:c5cb553e-5e3b-4137-82cd-27ed858109c5",
      "resource": {
        "resourceType": "Organization",
        "name": "East Wing Lab-ac051abd",
        "identifier": [
          {
            "system": "http://example.com/org",
            "value": "ORG-002-ac051abd"
          }
        ],
        "type": [
          {
            "coding": [
              {
                "system": "http://terminology.hl7.org/CodeSystem/organization-type",
                "code": "dept"
              }
            ]
          }
        ]
      },
      "request": {
        "method": "POST",
        "url": "Organization"
      }
    },
    {
      "fullUrl": "urn:uuid:4f4b62aa-b453-44e0-a718-1a99c21c2651",
      "resource": {
        "resourceType": "Organization",
        "name": "Pharmacy Services-ac051abd",
        "identifier": [
          {
            "system": "http://example.com/org",
            "value": "ORG-003-ac051abd"
          }
        ]
      },
      "request": {
        "method": "POST",
        "url": "Organization"
      }
    },
    {
      "fullUrl": "urn:uuid:eece0558-dcc6-4c9a-b79a-8e23609a7d22",
      "resource": {
        "resourceType": "Organization",
        "name": "Insurance Corp-ac051abd",
        "identifier": [
          {
            "system": "http://example.com/org",
            "value": "ORG-004-ac051abd"
          }
        ],
        "type": [
          {
            "coding": [
              {
                "system": "http://terminology.hl7.org/CodeSystem/organization-type",
                "code": "ins"
              }
            ]
          }
        ]
      },
      "request": {
        "method": "POST",
        "url": "Organization"
      }
    },
    {
      "fullUrl": "urn:uuid:50613d5a-7fec-4057-a698-be7341a2b51e",
      "resource": {
        "resourceType": "Organization",
        "name": "Specialty Clinic-ac051abd",
        "identifier": [
          {
            "system": "http://example.com/org",
            "value": "ORG-005-ac051abd"
          }
        ],
        "address": [
          {
            "line": [
              "200 Oak Ave"
            ],
            "city": "Shelbyville",
            "state": "IL",
            "postalCode": "62702",
            "country": "US"
          }
        ]
      },
      "request": {
        "method": "POST",
        "url": "Organization"
      }
    },
    {
      "fullUrl": "urn:uuid:44a9d5bb-d8c1-40dd-be02-2ee64d90ea08",
      "resource": {
        "resourceType": "Practitioner",
        "name": [
          {
            "family": "Smith-ac051abd",
            "given": [
              "John",
              "A"
            ],
            "prefix": [
              "Dr."
            ]
          }
        ],
        "identifier": [
          {
            "system": "http://example.com/npi",
            "value": "NPI-001-ac051abd"
          }
        ],
        "gender": "male",
        "birthDate": "1975-03-15",
        "telecom": [
          {
            "system": "email",
            "value": "john.smith-ac051abd@hospital.com"
          }
        ],
        "address": [
          {
            "line": [
              "100 Main St"
            ],
            "city": "Springfield",
            "state": "IL",
            "postalCode": "62701",
            "country": "US"
          }
        ]
      },
      "request": {
        "method": "POST",
        "url": "Practitioner"
      }
    },
    {
      "fullUrl": "urn:uuid:652cc660-0258-473d-995d-f51bc014d02e",
      "resource": {
        "resourceType": "Practitioner",
        "name": [
          {
            "family": "Johnson-ac051abd",
            "given": [
              "Emily"
            ]
          }
        ],
        "identifier": [
          {
            "system": "http://example.com/npi",
            "value": "NPI-002-ac051abd"
          }
        ],
        "gender": "female"
      },
      "request": {
        "method": "POST",
        "url": "Practitioner"
      }
    },
    {
      "fullUrl": "urn:uuid:193f5f02-a904-4198-ac5b-77b8a5e38100",
      "resource": {
        "resourceType": "Practitioner",
        "name": [
          {
            "family": "Williams-ac051abd",
            "given": [
              "Robert"
            ]
          }
        ],
        "identifier": [
          {
            "system": "http://example.com/npi",
            "value": "NPI-003-ac051abd"
          }
        ],
        "gender": "male"
      },
      "request": {
        "method": "POST",
        "url": "Practitioner"
      }
    },
    {
      "fullUrl": "urn:uuid:0ad9c8ea-4b20-431e-966d-72842670b4b4",
      "resource": {
        "resourceType": "Practitioner",
        "name": [
          {
            "family": "Brown-ac051abd",
            "given": [
              "Sarah"
            ]
          }
        ],
        "identifier": [
          {
            "system": "http://example.com/npi",
            "value": "NPI-004-ac051abd"
          }
        ],
        "gender": "female"
      },
      "request": {
        "method": "POST",
        "url": "Practitioner"
      }
    },
    {
      "fullUrl": "urn:uuid:e7ea570a-be7a-40ce-8efa-e28b939d45dc",
      "resource": {
        "resourceType": "Practitioner",
        "name": [
          {
            "family": "Davis-ac051abd",
            "given": [
              "Michael",
              "J"
            ]
          }
        ],
        "identifier": [
          {
            "system": "http://example.com/npi",
            "value": "NPI-005-ac051abd"
          }
        ],
        "gender": "male",
        "telecom": [
          {
            "system": "phone",
            "value": "555-0200"
          },
          {
            "system": "email",
            "value": "michael.davis-ac051abd@hospital.com"
          }
        ]
      },
      "request": {
        "method": "POST",
        "url": "Practitioner"
      }
    },
    {
      "fullUrl": "urn:uuid:d39b6ac9-a775-4143-b427-79a244de4c11",
      "resource": {
        "resourceType": "PractitionerRole",
        "practitioner": {
          "reference": "urn:uuid:44a9d5bb-d8c1-40dd-be02-2ee64d90ea08"
        },
        "organization": {
          "reference": "urn:uuid:6c4e3ca9-1197-4523-a7df-991eca857e2f"
        },
        "code": [
          {
            "coding": [
              {
                "system": "http://snomed.info/sct",
                "code": "59058001",
                "display": "GP-ac051abd"
              }
            ]
          }
        ],
        "active": true
      },
      "request": {
        "method": "POST",
        "url": "PractitionerRole"
      }
    },
    {
      "fullUrl": "urn:uuid:8ac3c2e7-86d7-4d0a-add9-a7285091d4c3",
      "resource": {
        "resourceType": "PractitionerRole",
        "practitioner": {
          "reference": "urn:uuid:652cc660-0258-473d-995d-f51bc014d02e"
        },
        "organization": {
          "reference": "urn:uuid:c5cb553e-5e3b-4137-82cd-27ed858109c5"
        },
        "code": [
          {
            "coding": [
              {
                "system": "http://snomed.info/sct",
                "code": "61246008",
                "display": "Lab-ac051abd"
              }
            ]
          }
        ]
      },
      "request": {
        "method": "POST",
        "url": "PractitionerRole"
      }
    },
    {
      "fullUrl": "urn:uuid:26f9b5e6-061f-4012-b6a6-342d4535d694",
      "resource": {
        "resourceType": "PractitionerRole",
        "practitioner": {
          "reference": "urn:uuid:193f5f02-a904-4198-ac5b-77b8a5e38100"
        },
        "organization": {
          "reference": "urn:uuid:6c4e3ca9-1197-4523-a7df-991eca857e2f"
        },
        "code": [
          {
            "coding": [
              {
                "system": "http://snomed.info/sct",
                "code": "304292004",
                "display": "Surgeon-ac051abd"
              }
            ]
          }
        ]
      },
      "request": {
        "method": "POST",
        "url": "PractitionerRole"
      }
    },
    {
      "fullUrl": "urn:uuid:26cebb66-c61c-4ca0-9eb6-c75d8fc0de3a",
      "resource": {
        "resourceType": "PractitionerRole",
        "practitioner": {
          "reference": "urn:uuid:0ad9c8ea-4b20-431e-966d-72842670b4b4"
        },
        "organization": {
          "reference": "urn:uuid:4f4b62aa-b453-44e0-a718-1a99c21c2651"
        },
        "code": [
          {
            "coding": [
              {
                "system": "http://snomed.info/sct",
                "code": "46255001",
                "display": "Pharmacist-ac051abd"
              }
            ]
          }
        ]
      },
      "request": {
        "method": "POST",
        "url": "PractitionerRole"
      }
    },
    {
      "fullUrl": "urn:uuid:a4c38864-b05a-417b-85c2-3b37fca58429",
      "resource": {
        "resourceType": "PractitionerRole",
        "practitioner": {
          "reference": "urn:uuid:e7ea570a-be7a-40ce-8efa-e28b939d45dc"
        },
        "organization": {
          "reference": "urn:uuid:50613d5a-7fec-4057-a698-be7341a2b51e"
        },
        "code": [
          {
            "coding": [
              {
                "system": "http://snomed.info/sct",
                "code": "309343006",
                "display": "Specialist-ac051abd"
              }
            ]
          }
        ]
      },
      "request": {
        "method": "POST",
        "url": "PractitionerRole"
      }
    },
    {
      "fullUrl": "urn:uuid:bea77d56-93d1-4234-bc90-86ffa43f6f3a",
      "resource": {
        "resourceType": "Patient",
        "active": true,
        "gender": "male",
        "birthDate": "1985-06-15",
        "name": [
          {
            "use": "official",
            "family": "Doe-ac051abd",
            "given": [
              "John",
              "Michael"
            ]
          },
          {
            "use": "nickname",
            "given": [
              "Johnny"
            ]
          }
        ],
        "identifier": [
          {
            "system": "http://example.com/mrn",
            "value": "MRN-001-ac051abd"
          },
          {
            "system": "http://example.com/ssn",
            "value": "SSN-001-ac051abd"
          }
        ],
        "telecom": [
          {
            "system": "phone",
            "value": "555-1001",
            "use": "home"
          },
          {
            "system": "email",
            "value": "john.doe-ac051abd@example.com",
            "use": "work"
          }
        ],
        "address": [
          {
            "use": "home",
            "line": [
              "123 Elm St",
              "Apt 4B"
            ],
            "city": "Springfield",
            "state": "IL",
            "postalCode": "62701",
            "country": "US"
          }
        ],
        "managingOrganization": {
          "reference": "urn:uuid:6c4e3ca9-1197-4523-a7df-991eca857e2f"
        },
        "generalPractitioner": [
          {
            "reference": "urn:uuid:44a9d5bb-d8c1-40dd-be02-2ee64d90ea08"
          }
        ],
        "meta": {
          "tag": [
            {
              "system": "http://example.com/tags",
              "code": "vip-ac051abd"
            }
          ]
        },
        "maritalStatus": {
          "coding": [
            {
              "system": "http://terminology.hl7.org/CodeSystem/v3-MaritalStatus",
              "code": "M",
              "display": "Married"
            }
          ]
        },
        "communication": [
          {
            "language": {
              "coding": [
                {
                  "system": "urn:ietf:bcp:47",
                  "code": "en"
                }
              ]
            }
          }
        ]
      },
      "request": {
        "method": "POST",
        "url": "Patient"
      }
    },
    {
      "fullUrl": "urn:uuid:50678827-4410-4503-8a8f-9ab617b76a0a",
      "resource": {
        "resourceType": "Patient",
        "active": true,
        "gender": "female",
        "birthDate": "1990-11-22",
        "name": [
          {
            "use": "official",
            "family": "Smith-ac051abd",
            "given": [
              "Jane",
              "Elizabeth"
            ]
          }
        ],
        "identifier": [
          {
            "system": "http://example.com/mrn",
            "value": "MRN-002-ac051abd"
          }
        ],
        "telecom": [
          {
            "system": "phone",
            "value": "555-1002"
          }
        ],
        "address": [
          {
            "use": "home",
            "line": [
              "456 Oak Ave"
            ],
            "city": "Chicago",
            "state": "IL",
            "postalCode": "60601",
            "country": "US"
          }
        ],
        "managingOrganization": {
          "reference": "urn:uuid:6c4e3ca9-1197-4523-a7df-991eca857e2f"
        }
      },
      "request": {
        "method": "POST",
        "url": "Patient"
      }
    },
    {
      "fullUrl": "urn:uuid:2493ebb5-05a4-4592-bf6e-d895d6471403",
      "resource": {
        "resourceType": "Patient",
        "active": true,
        "gender": "male",
        "birthDate": "1978-01-30",
        "name": [
          {
            "use": "official",
            "family": "Williams-ac051abd",
            "given": [
              "Robert"
            ]
          }
        ],
        "identifier": [
          {
            "system": "http://example.com/mrn",
            "value": "MRN-003-ac051abd"
          }
        ],
        "address": [
          {
            "line": [
              "789 Pine Rd"
            ],
            "city": "Shelbyville",
            "state": "IL",
            "postalCode": "62702",
            "country": "US"
          },
          {
            "use": "work",
            "line": [
              "100 Main St"
            ],
            "city": "Springfield",
            "state": "IL"
          }
        ],
        "generalPractitioner": [
          {
            "reference": "urn:uuid:193f5f02-a904-4198-ac5b-77b8a5e38100"
          }
        ],
        "meta": {
          "tag": [
            {
              "system": "http://example.com/tags",
              "code": "urgent-ac051abd"
            },
            {
              "system": "http://example.com/tags",
              "code": "flagged-ac051abd"
            }
          ],
          "security": [
            {
              "system": "http://terminology.hl7.org/CodeSystem/v3-Confidentiality",
              "code": "R"
            }
          ]
        }
      },
      "request": {
        "method": "POST",
        "url": "Patient"
      }
    },
    {
      "fullUrl": "urn:uuid:a7a17aff-b9e8-4425-9889-419e46d38240",
      "resource": {
        "resourceType": "Patient",
        "active": false,
        "gender": "female",
        "birthDate": "2005-08-10",
        "name": [
          {
            "use": "official",
            "family": "Davis-ac051abd",
            "given": [
              "Alice"
            ]
          }
        ],
        "identifier": [
          {
            "system": "http://example.com/mrn",
            "value": "MRN-004-ac051abd"
          }
        ],
        "deceasedBoolean": false
      },
      "request": {
        "method": "POST",
        "url": "Patient"
      }
    },
    {
      "fullUrl": "urn:uuid:50320ddb-12ad-4923-be7f-802e133ba8f0",
      "resource": {
        "resourceType": "Patient",
        "active": true,
        "gender": "other",
        "birthDate": "2000-03-01",
        "name": [
          {
            "use": "official",
            "family": "Garcia-ac051abd",
            "given": [
              "Alex",
              "M"
            ]
          }
        ],
        "identifier": [
          {
            "system": "http://example.com/mrn",
            "value": "MRN-005-ac051abd"
          }
        ],
        "telecom": [
          {
            "system": "email",
            "value": "alex.garcia-ac051abd@example.com"
          }
        ]
      },
      "request": {
        "method": "POST",
        "url": "Patient"
      }
    },
    {
      "fullUrl": "urn:uuid:56f5bdb1-6442-4cd9-94f7-9a3adc656e25",
      "resource": {
        "resourceType": "Patient",
        "active": true,
        "gender": "male",
        "birthDate": "1960-12-25",
        "name": [
          {
            "use": "official",
            "family": "Wilson-ac051abd",
            "given": [
              "George"
            ]
          }
        ],
        "identifier": [
          {
            "system": "http://example.com/mrn",
            "value": "MRN-006-ac051abd"
          }
        ],
        "deceasedDateTime": "2025-01-15T10:30:00Z"
      },
      "request": {
        "method": "POST",
        "url": "Patient"
      }
    },
    {
      "fullUrl": "urn:uuid:218ad5c5-a25c-4d03-bc22-1ad4678d6387",
      "resource": {
        "resourceType": "Patient",
        "active": true,
        "gender": "female",
        "birthDate": "1995-07-04",
        "name": [
          {
            "use": "official",
            "family": "Martinez-ac051abd",
            "given": [
              "Sofia",
              "Isabella"
            ]
          },
          {
            "use": "maiden",
            "family": "Lopez-ac051abd"
          }
        ],
        "identifier": [
          {
            "system": "http://example.com/mrn",
            "value": "MRN-007-ac051abd"
          },
          {
            "system": "http://example.com/passport",
            "value": "PP-007-ac051abd"
          }
        ],
        "telecom": [
          {
            "system": "phone",
            "value": "555-1007",
            "use": "mobile"
          },
          {
            "system": "phone",
            "value": "555-1008",
            "use": "home"
          },
          {
            "system": "email",
            "value": "sofia-ac051abd@example.com"
          }
        ],
        "address": [
          {
            "use": "home",
            "line": [
              "1000 Maple Dr"
            ],
            "city": "Capital City",
            "state": "CA",
            "postalCode": "90001",
            "country": "US"
          },
          {
            "use": "temp",
            "city": "TempCity",
            "state": "NY"
          }
        ],
        "contact": [
          {
            "relationship": [
              {
                "coding": [
                  {
                    "system": "http://terminology.hl7.org/CodeSystem/v2-0131",
                    "code": "N"
                  }
                ]
              }
            ],
            "name": {
              "family": "EmergencyContact-ac051abd",
              "given": [
                "Carlos"
              ]
            },
            "telecom": [
              {
                "system": "phone",
                "value": "555-9999"
              }
            ]
          }
        ]
      },
      "request": {
        "method": "POST",
        "url": "Patient"
      }
    },
    {
      "fullUrl": "urn:uuid:2dc9178d-e04d-4a61-90d0-30d14ce4bf34",
      "resource": {
        "resourceType": "Encounter",
        "status": "finished",
        "class": {
          "system": "http://terminology.hl7.org/CodeSystem/v3-ActCode",
          "code": "AMB",
          "display": "Ambulatory-ac051abd"
        },
        "subject": {
          "reference": "urn:uuid:bea77d56-93d1-4234-bc90-86ffa43f6f3a"
        },
        "serviceProvider": {
          "reference": "urn:uuid:6c4e3ca9-1197-4523-a7df-991eca857e2f"
        },
        "participant": [
          {
            "individual": {
              "reference": "urn:uuid:44a9d5bb-d8c1-40dd-be02-2ee64d90ea08"
            }
          }
        ],
        "period": {
          "start": "2025-01-10T08:00:00Z",
          "end": "2025-01-10T09:00:00Z"
        },
        "type": [
          {
            "coding": [
              {
                "system": "http://snomed.info/sct",
                "code": "308335008",
                "display": "OPD-ac051abd"
              }
            ]
          }
        ]
      },
      "request": {
        "method": "POST",
        "url": "Encounter"
      }
    },
    {
      "fullUrl": "urn:uuid:80b01226-dece-4403-b08a-515f123f03ac",
      "resource": {
        "resourceType": "Encounter",
        "status": "finished",
        "class": {
          "system": "http://terminology.hl7.org/CodeSystem/v3-ActCode",
          "code": "IMP"
        },
        "subject": {
          "reference": "urn:uuid:bea77d56-93d1-4234-bc90-86ffa43f6f3a"
        },
        "serviceProvider": {
          "reference": "urn:uuid:6c4e3ca9-1197-4523-a7df-991eca857e2f"
        },
        "period": {
          "start": "2025-02-01T10:00:00Z",
          "end": "2025-02-05T14:00:00Z"
        }
      },
      "request": {
        "method": "POST",
        "url": "Encounter"
      }
    },
    {
      "fullUrl": "urn:uuid:270e850f-45a4-457e-a790-808a6dc805d4",
      "resource": {
        "resourceType": "Encounter",
        "status": "finished",
        "class": {
          "system": "http://terminology.hl7.org/CodeSystem/v3-ActCode",
          "code": "AMB"
        },
        "subject": {
          "reference": "urn:uuid:50678827-4410-4503-8a8f-9ab617b76a0a"
        },
        "serviceProvider": {
          "reference": "urn:uuid:6c4e3ca9-1197-4523-a7df-991eca857e2f"
        },
        "participant": [
          {
            "individual": {
              "reference": "urn:uuid:652cc660-0258-473d-995d-f51bc014d02e"
            }
          }
        ],
        "period": {
          "start": "2025-03-15T14:00:00Z"
        }
      },
      "request": {
        "method": "POST",
        "url": "Encounter"
      }
    },
    {
      "fullUrl": "urn:uuid:b1d0f39f-7445-4871-be66-21a6c5a666fd",
      "resource": {
        "resourceType": "Encounter",
        "status": "in-progress",
        "class": {
          "system": "http://terminology.hl7.org/CodeSystem/v3-ActCode",
          "code": "EMER"
        },
        "subject": {
          "reference": "urn:uuid:2493ebb5-05a4-4592-bf6e-d895d6471403"
        },
        "serviceProvider": {
          "reference": "urn:uuid:6c4e3ca9-1197-4523-a7df-991eca857e2f"
        },
        "period": {
          "start": "2026-02-25T10:00:00Z"
        }
      },
      "request": {
        "method": "POST",
        "url": "Encounter"
      }
    },
    {
      "fullUrl": "urn:uuid:d1a461cf-3c52-4f84-80a4-94bc562db44e",
      "resource": {
        "resourceType": "Encounter",
        "status": "planned",
        "class": {
          "system": "http://terminology.hl7.org/CodeSystem/v3-ActCode",
          "code": "AMB"
        },
        "subject": {
          "reference": "urn:uuid:a7a17aff-b9e8-4425-9889-419e46d38240"
        },
        "period": {
          "start": "2026-03-01T09:00:00Z"
        }
      },
      "request": {
        "method": "POST",
        "url": "Encounter"
      }
    },
    {
      "fullUrl": "urn:uuid:20ba1cd6-0717-434e-8684-4d9c7a4cc29a",
      "resource": {
        "resourceType": "Encounter",
        "status": "finished",
        "class": {
          "system": "http://terminology.hl7.org/CodeSystem/v3-ActCode",
          "code": "AMB"
        },
        "subject": {
          "reference": "urn:uuid:218ad5c5-a25c-4d03-bc22-1ad4678d6387"
        },
        "serviceProvider": {
          "reference": "urn:uuid:50613d5a-7fec-4057-a698-be7341a2b51e"
        },
        "participant": [
          {
            "individual": {
              "reference": "urn:uuid:e7ea570a-be7a-40ce-8efa-e28b939d45dc"
            }
          }
        ],
        "period": {
          "start": "2025-06-01T11:00:00Z",
          "end": "2025-06-01T12:00:00Z"
        }
      },
      "request": {
        "method": "POST",
        "url": "Encounter"
      }
    },
    {
      "fullUrl": "urn:uuid:0e319d9b-6137-4873-9a9b-1b708e63c6f0",
      "resource": {
        "resourceType": "Condition",
        "clinicalStatus": {
          "coding": [
            {
              "system": "http://terminology.hl7.org/CodeSystem/condition-clinical",
              "code": "active"
            }
          ]
        },
        "verificationStatus": {
          "coding": [
            {
              "system": "http://terminology.hl7.org/CodeSystem/condition-ver-status",
              "code": "confirmed"
            }
          ]
        },
        "code": {
          "coding": [
            {
              "system": "http://snomed.info/sct",
              "code": "44054006",
              "display": "Type2DM-ac051abd"
            }
          ]
        },
        "subject": {
          "reference": "urn:uuid:bea77d56-93d1-4234-bc90-86ffa43f6f3a"
        },
        "encounter": {
          "reference": "urn:uuid:2dc9178d-e04d-4a61-90d0-30d14ce4bf34"
        },
        "onsetDateTime": "2020-01-01"
      },
      "request": {
        "method": "POST",
        "url": "Condition"
      }
    },
    {
      "fullUrl": "urn:uuid:cf9531fb-8fc3-4e49-a44b-af4a1a167328",
      "resource": {
        "resourceType": "Condition",
        "clinicalStatus": {
          "coding": [
            {
              "system": "http://terminology.hl7.org/CodeSystem/condition-clinical",
              "code": "active"
            }
          ]
        },
        "verificationStatus": {
          "coding": [
            {
              "system": "http://terminology.hl7.org/CodeSystem/condition-ver-status",
              "code": "confirmed"
            }
          ]
        },
        "code": {
          "coding": [
            {
              "system": "http://snomed.info/sct",
              "code": "38341003",
              "display": "Hypertension-ac051abd"
            }
          ]
        },
        "subject": {
          "reference": "urn:uuid:bea77d56-93d1-4234-bc90-86ffa43f6f3a"
        },
        "onsetDateTime": "2018-06-15"
      },
      "request": {
        "method": "POST",
        "url": "Condition"
      }
    },
    {
      "fullUrl": "urn:uuid:c6e839c7-6051-40b2-9235-ae6dfbda2794",
      "resource": {
        "resourceType": "Condition",
        "clinicalStatus": {
          "coding": [
            {
              "system": "http://terminology.hl7.org/CodeSystem/condition-clinical",
              "code": "resolved"
            }
          ]
        },
        "code": {
          "coding": [
            {
              "system": "http://snomed.info/sct",
              "code": "195662009",
              "display": "Pneumonia-ac051abd"
            }
          ]
        },
        "subject": {
          "reference": "urn:uuid:50678827-4410-4503-8a8f-9ab617b76a0a"
        },
        "encounter": {
          "reference": "urn:uuid:270e850f-45a4-457e-a790-808a6dc805d4"
        },
        "onsetDateTime": "2025-03-10",
        "abatementDateTime": "2025-03-25"
      },
      "request": {
        "method": "POST",
        "url": "Condition"
      }
    },
    {
      "fullUrl": "urn:uuid:7a567f8e-ee3f-42f3-b33e-c4d5836c9e25",
      "resource": {
        "resourceType": "Condition",
        "clinicalStatus": {
          "coding": [
            {
              "system": "http://terminology.hl7.org/CodeSystem/condition-clinical",
              "code": "active"
            }
          ]
        },
        "code": {
          "coding": [
            {
              "system": "http://snomed.info/sct",
              "code": "73211009",
              "display": "DiabetesI-ac051abd"
            }
          ]
        },
        "subject": {
          "reference": "urn:uuid:2493ebb5-05a4-4592-bf6e-d895d6471403"
        },
        "onsetDateTime": "2010-05-01"
      },
      "request": {
        "method": "POST",
        "url": "Condition"
      }
    },
    {
      "fullUrl": "urn:uuid:d8a9eb3c-3270-4933-b806-8fbd721bd49d",
      "resource": {
        "resourceType": "Condition",
        "clinicalStatus": {
          "coding": [
            {
              "system": "http://terminology.hl7.org/CodeSystem/condition-clinical",
              "code": "active"
            }
          ]
        },
        "code": {
          "coding": [
            {
              "system": "http://snomed.info/sct",
              "code": "195967001",
              "display": "Asthma-ac051abd"
            }
          ]
        },
        "subject": {
          "reference": "urn:uuid:218ad5c5-a25c-4d03-bc22-1ad4678d6387"
        },
        "encounter": {
          "reference": "urn:uuid:20ba1cd6-0717-434e-8684-4d9c7a4cc29a"
        },
        "onsetDateTime": "2015-08-20"
      },
      "request": {
        "method": "POST",
        "url": "Condition"
      }
    },
    {
      "fullUrl": "urn:uuid:2b14d347-d653-4b88-9b7b-068f9c9a96d5",
      "resource": {
        "resourceType": "Observation",
        "status": "final",
        "code": {
          "coding": [
            {
              "system": "http://loinc.org",
              "code": "29463-7",
              "display": "BodyWeight-ac051abd"
            }
          ]
        },
        "subject": {
          "reference": "urn:uuid:bea77d56-93d1-4234-bc90-86ffa43f6f3a"
        },
        "encounter": {
          "reference": "urn:uuid:2dc9178d-e04d-4a61-90d0-30d14ce4bf34"
        },
        "valueQuantity": {
          "value": 75.5,
          "unit": "kg",
          "system": "http://unitsofmeasure.org",
          "code": "kg"
        },
        "effectiveDateTime": "2025-01-10T08:30:00Z",
        "category": [
          {
            "coding": [
              {
                "system": "http://terminology.hl7.org/CodeSystem/observation-category",
                "code": "vital-signs"
              }
            ]
          }
        ]
      },
      "request": {
        "method": "POST",
        "url": "Observation"
      }
    },
    {
      "fullUrl": "urn:uuid:1abcc99e-a23f-42c1-b4bf-96c71a025bea",
      "resource": {
        "resourceType": "Observation",
        "status": "final",
        "code": {
          "coding": [
            {
              "system": "http://loinc.org",
              "code": "8867-4",
              "display": "HeartRate-ac051abd"
            }
          ]
        },
        "subject": {
          "reference": "urn:uuid:bea77d56-93d1-4234-bc90-86ffa43f6f3a"
        },
        "encounter": {
          "reference": "urn:uuid:2dc9178d-e04d-4a61-90d0-30d14ce4bf34"
        },
        "valueQuantity": {
          "value": 72,
          "unit": "/min",
          "system": "http://unitsofmeasure.org",
          "code": "/min"
        },
        "effectiveDateTime": "2025-01-10T08:30:00Z"
      },
      "request": {
        "method": "POST",
        "url": "Observation"
      }
    },
    {
      "fullUrl": "urn:uuid:45d5fd43-0a19-476e-ad42-de9030634cbb",
      "resource": {
        "resourceType": "Observation",
        "status": "final",
        "code": {
          "coding": [
            {
              "system": "http://loinc.org",
              "code": "85354-9",
              "display": "BP-ac051abd"
            }
          ]
        },
        "subject": {
          "reference": "urn:uuid:bea77d56-93d1-4234-bc90-86ffa43f6f3a"
        },
        "encounter": {
          "reference": "urn:uuid:80b01226-dece-4403-b08a-515f123f03ac"
        },
        "component": [
          {
            "code": {
              "coding": [
                {
                  "system": "http://loinc.org",
                  "code": "8480-6"
                }
              ]
            },
            "valueQuantity": {
              "value": 120,
              "unit": "mmHg"
            }
          },
          {
            "code": {
              "coding": [
                {
                  "system": "http://loinc.org",
                  "code": "8462-4"
                }
              ]
            },
            "valueQuantity": {
              "value": 80,
              "unit": "mmHg"
            }
          }
        ],
        "effectiveDateTime": "2025-02-01T10:30:00Z"
      },
      "request": {
        "method": "POST",
        "url": "Observation"
      }
    },
    {
      "fullUrl": "urn:uuid:0077f194-af4b-45e8-8966-5699e7be38f9",
      "resource": {
        "resourceType": "Observation",
        "status": "final",
        "code": {
          "coding": [
            {
              "system": "http://loinc.org",
              "code": "2339-0",
              "display": "Glucose-ac051abd"
            }
          ]
        },
        "subject": {
          "reference": "urn:uuid:50678827-4410-4503-8a8f-9ab617b76a0a"
        },
        "encounter": {
          "reference": "urn:uuid:270e850f-45a4-457e-a790-808a6dc805d4"
        },
        "valueQuantity": {
          "value": 95,
          "unit": "mg/dL"
        },
        "effectiveDateTime": "2025-03-15T14:30:00Z",
        "interpretation": [
          {
            "coding": [
              {
                "system": "http://terminology.hl7.org/CodeSystem/v3-ObservationInterpretation",
                "code": "N",
                "display": "Normal"
              }
            ]
          }
        ]
      },
      "request": {
        "method": "POST",
        "url": "Observation"
      }
    },
    {
      "fullUrl": "urn:uuid:838955d1-b390-498e-91ed-35031a1318fd",
      "resource": {
        "resourceType": "Observation",
        "status": "final",
        "code": {
          "coding": [
            {
              "system": "http://loinc.org",
              "code": "718-7",
              "display": "Hemoglobin-ac051abd"
            }
          ]
        },
        "subject": {
          "reference": "urn:uuid:2493ebb5-05a4-4592-bf6e-d895d6471403"
        },
        "valueQuantity": {
          "value": 14.2,
          "unit": "g/dL"
        },
        "effectiveDateTime": "2025-04-01"
      },
      "request": {
        "method": "POST",
        "url": "Observation"
      }
    },
    {
      "fullUrl": "urn:uuid:be4dccba-e83b-4e95-88df-e304bc63cbcb",
      "resource": {
        "resourceType": "Observation",
        "status": "preliminary",
        "code": {
          "coding": [
            {
              "system": "http://loinc.org",
              "code": "6690-2",
              "display": "WBC-ac051abd"
            }
          ]
        },
        "subject": {
          "reference": "urn:uuid:2493ebb5-05a4-4592-bf6e-d895d6471403"
        },
        "encounter": {
          "reference": "urn:uuid:b1d0f39f-7445-4871-be66-21a6c5a666fd"
        },
        "valueQuantity": {
          "value": 8500,
          "unit": "/uL"
        },
        "effectiveDateTime": "2026-02-25T10:30:00Z"
      },
      "request": {
        "method": "POST",
        "url": "Observation"
      }
    },
    {
      "fullUrl": "urn:uuid:687e592e-3ec3-4a06-b7bb-1f8a97ce104b",
      "resource": {
        "resourceType": "Observation",
        "status": "final",
        "code": {
          "coding": [
            {
              "system": "http://loinc.org",
              "code": "39156-5",
              "display": "BMI-ac051abd"
            }
          ]
        },
        "subject": {
          "reference": "urn:uuid:218ad5c5-a25c-4d03-bc22-1ad4678d6387"
        },
        "encounter": {
          "reference": "urn:uuid:20ba1cd6-0717-434e-8684-4d9c7a4cc29a"
        },
        "valueQuantity": {
          "value": 22.1,
          "unit": "kg/m2"
        },
        "effectiveDateTime": "2025-06-01T11:30:00Z"
      },
      "request": {
        "method": "POST",
        "url": "Observation"
      }
    },
    {
      "fullUrl": "urn:uuid:e722aeaa-59c5-49d0-9171-75103cdb801a",
      "resource": {
        "resourceType": "Observation",
        "status": "final",
        "code": {
          "coding": [
            {
              "system": "http://loinc.org",
              "code": "8310-5",
              "display": "BodyTemp-ac051abd"
            }
          ]
        },
        "subject": {
          "reference": "urn:uuid:218ad5c5-a25c-4d03-bc22-1ad4678d6387"
        },
        "valueQuantity": {
          "value": 37.2,
          "unit": "Cel"
        },
        "effectiveDateTime": "2025-06-01T11:35:00Z"
      },
      "request": {
        "method": "POST",
        "url": "Observation"
      }
    },
    {
      "fullUrl": "urn:uuid:199d28a7-fed4-4c6b-860b-d8b0756ec127",
      "resource": {
        "resourceType": "DiagnosticReport",
        "status": "final",
        "code": {
          "coding": [
            {
              "system": "http://loinc.org",
              "code": "58410-2",
              "display": "CBC-ac051abd"
            }
          ]
        },
        "subject": {
          "reference": "urn:uuid:bea77d56-93d1-4234-bc90-86ffa43f6f3a"
        },
        "encounter": {
          "reference": "urn:uuid:2dc9178d-e04d-4a61-90d0-30d14ce4bf34"
        },
        "result": [
          {
            "reference": "urn:uuid:2b14d347-d653-4b88-9b7b-068f9c9a96d5"
          },
          {
            "reference": "urn:uuid:1abcc99e-a23f-42c1-b4bf-96c71a025bea"
          }
        ],
        "effectiveDateTime": "2025-01-10T09:00:00Z",
        "issued": "2025-01-10T10:00:00Z"
      },
      "request": {
        "method": "POST",
        "url": "DiagnosticReport"
      }
    },
    {
      "fullUrl": "urn:uuid:24672097-c0e2-4762-96b6-9818d4407416",
      "resource": {
        "resourceType": "DiagnosticReport",
        "status": "final",
        "code": {
          "coding": [
            {
              "system": "http://loinc.org",
              "code": "24323-8",
              "display": "CMP-ac051abd"
            }
          ]
        },
        "subject": {
          "reference": "urn:uuid:bea77d56-93d1-4234-bc90-86ffa43f6f3a"
        },
        "encounter": {
          "reference": "urn:uuid:80b01226-dece-4403-b08a-515f123f03ac"
        },
        "result": [
          {
            "reference": "urn:uuid:45d5fd43-0a19-476e-ad42-de9030634cbb"
          }
        ],
        "effectiveDateTime": "2025-02-01T11:00:00Z"
      },
      "request": {
        "method": "POST",
        "url": "DiagnosticReport"
      }
    },
    {
      "fullUrl": "urn:uuid:e381055e-f470-481c-bec6-5b6bc22188d6",
      "resource": {
        "resourceType": "DiagnosticReport",
        "status": "final",
        "code": {
          "coding": [
            {
              "system": "http://loinc.org",
              "code": "2339-0",
              "display": "GlucoseReport-ac051abd"
            }
          ]
        },
        "subject": {
          "reference": "urn:uuid:50678827-4410-4503-8a8f-9ab617b76a0a"
        },
        "result": [
          {
            "reference": "urn:uuid:0077f194-af4b-45e8-8966-5699e7be38f9"
          }
        ],
        "effectiveDateTime": "2025-03-15T15:00:00Z"
      },
      "request": {
        "method": "POST",
        "url": "DiagnosticReport"
      }
    },
    {
      "fullUrl": "urn:uuid:13bf198e-72a2-460b-9674-7c87c4a8f823",
      "resource": {
        "resourceType": "DiagnosticReport",
        "status": "preliminary",
        "code": {
          "coding": [
            {
              "system": "http://loinc.org",
              "code": "58410-2",
              "display": "CBC2-ac051abd"
            }
          ]
        },
        "subject": {
          "reference": "urn:uuid:2493ebb5-05a4-4592-bf6e-d895d6471403"
        },
        "result": [
          {
            "reference": "urn:uuid:838955d1-b390-498e-91ed-35031a1318fd"
          },
          {
            "reference": "urn:uuid:be4dccba-e83b-4e95-88df-e304bc63cbcb"
          }
        ],
        "effectiveDateTime": "2026-02-25T11:00:00Z"
      },
      "request": {
        "method": "POST",
        "url": "DiagnosticReport"
      }
    },
    {
      "fullUrl": "urn:uuid:003c6e59-cd2f-425e-873d-3d50e1f5d9ba",
      "resource": {
        "resourceType": "DiagnosticReport",
        "status": "final",
        "code": {
          "coding": [
            {
              "system": "http://loinc.org",
              "code": "55399-0",
              "display": "Vitals-ac051abd"
            }
          ]
        },
        "subject": {
          "reference": "urn:uuid:218ad5c5-a25c-4d03-bc22-1ad4678d6387"
        },
        "encounter": {
          "reference": "urn:uuid:20ba1cd6-0717-434e-8684-4d9c7a4cc29a"
        },
        "result": [
          {
            "reference": "urn:uuid:687e592e-3ec3-4a06-b7bb-1f8a97ce104b"
          },
          {
            "reference": "urn:uuid:e722aeaa-59c5-49d0-9171-75103cdb801a"
          }
        ],
        "effectiveDateTime": "2025-06-01T12:00:00Z"
      },
      "request": {
        "method": "POST",
        "url": "DiagnosticReport"
      }
    },
    {
      "fullUrl": "urn:uuid:0fddf9e3-6b18-491b-8793-5039e97a28bd",
      "resource": {
        "resourceType": "MedicationRequest",
        "status": "active",
        "intent": "order",
        "medicationReference": {
          "reference": "urn:uuid:a1fa2acb-5ede-4923-bb26-928d8d7a3de3"
        },
        "subject": {
          "reference": "urn:uuid:bea77d56-93d1-4234-bc90-86ffa43f6f3a"
        },
        "encounter": {
          "reference": "urn:uuid:2dc9178d-e04d-4a61-90d0-30d14ce4bf34"
        },
        "requester": {
          "reference": "urn:uuid:44a9d5bb-d8c1-40dd-be02-2ee64d90ea08"
        },
        "authoredOn": "2025-01-10",
        "dosageInstruction": [
          {
            "text": "Take 500mg PRN-ac051abd",
            "timing": {
              "repeat": {
                "frequency": 3,
                "period": 1,
                "periodUnit": "d"
              }
            }
          }
        ]
      },
      "request": {
        "method": "POST",
        "url": "MedicationRequest"
      }
    },
    {
      "fullUrl": "urn:uuid:238bb4b7-c9d5-4e19-a3f3-f9a5f2247ded",
      "resource": {
        "resourceType": "MedicationRequest",
        "status": "active",
        "intent": "order",
        "medicationReference": {
          "reference": "urn:uuid:c6e72afe-9cf0-42cb-8f15-848f313e788f"
        },
        "subject": {
          "reference": "urn:uuid:bea77d56-93d1-4234-bc90-86ffa43f6f3a"
        },
        "requester": {
          "reference": "urn:uuid:44a9d5bb-d8c1-40dd-be02-2ee64d90ea08"
        },
        "authoredOn": "2025-02-01",
        "dosageInstruction": [
          {
            "text": "250mg TID-ac051abd"
          }
        ]
      },
      "request": {
        "method": "POST",
        "url": "MedicationRequest"
      }
    },
    {
      "fullUrl": "urn:uuid:9fdedf2f-2691-43e7-a662-e5b53d901514",
      "resource": {
        "resourceType": "MedicationRequest",
        "status": "active",
        "intent": "order",
        "medicationReference": {
          "reference": "urn:uuid:26b45b4a-3c39-40da-b468-7616c1071e59"
        },
        "subject": {
          "reference": "urn:uuid:50678827-4410-4503-8a8f-9ab617b76a0a"
        },
        "requester": {
          "reference": "urn:uuid:652cc660-0258-473d-995d-f51bc014d02e"
        },
        "authoredOn": "2025-03-15"
      },
      "request": {
        "method": "POST",
        "url": "MedicationRequest"
      }
    },
    {
      "fullUrl": "urn:uuid:fb1463d9-d8ee-4557-af6b-1d991c4d0994",
      "resource": {
        "resourceType": "MedicationRequest",
        "status": "stopped",
        "intent": "order",
        "medicationReference": {
          "reference": "urn:uuid:66682370-4838-4112-8f87-892ce82ca164"
        },
        "subject": {
          "reference": "urn:uuid:2493ebb5-05a4-4592-bf6e-d895d6471403"
        },
        "requester": {
          "reference": "urn:uuid:193f5f02-a904-4198-ac5b-77b8a5e38100"
        },
        "authoredOn": "2025-04-01"
      },
      "request": {
        "method": "POST",
        "url": "MedicationRequest"
      }
    },
    {
      "fullUrl": "urn:uuid:4f83cac7-3737-4671-897a-43ac4aeb7dc6",
      "resource": {
        "resourceType": "MedicationRequest",
        "status": "active",
        "intent": "plan",
        "medicationReference": {
          "reference": "urn:uuid:5c8f51ae-17b5-422f-97a8-cab29903f086"
        },
        "subject": {
          "reference": "urn:uuid:218ad5c5-a25c-4d03-bc22-1ad4678d6387"
        },
        "encounter": {
          "reference": "urn:uuid:20ba1cd6-0717-434e-8684-4d9c7a4cc29a"
        },
        "requester": {
          "reference": "urn:uuid:e7ea570a-be7a-40ce-8efa-e28b939d45dc"
        },
        "authoredOn": "2025-06-01"
      },
      "request": {
        "method": "POST",
        "url": "MedicationRequest"
      }
    },
    {
      "fullUrl": "urn:uuid:a1fa2acb-5ede-4923-bb26-928d8d7a3de3",
      "resource": {
        "resourceType": "Medication",
        "code": {
          "coding": [
            {
              "system": "http://www.nlm.nih.gov/research/umls/rxnorm",
              "code": "1049502",
              "display": "Acetaminophen-ac051abd"
            }
          ]
        },
        "status": "active"
      },
      "request": {
        "method": "POST",
        "url": "Medication"
      }
    },
    {
      "fullUrl": "urn:uuid:c6e72afe-9cf0-42cb-8f15-848f313e788f",
      "resource": {
        "resourceType": "Medication",
        "code": {
          "coding": [
            {
              "system": "http://www.nlm.nih.gov/research/umls/rxnorm",
              "code": "197361",
              "display": "Amoxicillin-ac051abd"
            }
          ]
        },
        "status": "active",
        "manufacturer": {
          "reference": "urn:uuid:4f4b62aa-b453-44e0-a718-1a99c21c2651"
        }
      },
      "request": {
        "method": "POST",
        "url": "Medication"
      }
    },
    {
      "fullUrl": "urn:uuid:26b45b4a-3c39-40da-b468-7616c1071e59",
      "resource": {
        "resourceType": "Medication",
        "code": {
          "coding": [
            {
              "system": "http://www.nlm.nih.gov/research/umls/rxnorm",
              "code": "310965",
              "display": "Lisinopril-ac051abd"
            }
          ]
        },
        "status": "active"
      },
      "request": {
        "method": "POST",
        "url": "Medication"
      }
    },
    {
      "fullUrl": "urn:uuid:66682370-4838-4112-8f87-892ce82ca164",
      "resource": {
        "resourceType": "Medication",
        "code": {
          "coding": [
            {
              "system": "http://www.nlm.nih.gov/research/umls/rxnorm",
              "code": "860975",
              "display": "Metformin-ac051abd"
            }
          ]
        },
        "status": "active"
      },
      "request": {
        "method": "POST",
        "url": "Medication"
      }
    },
    {
      "fullUrl": "urn:uuid:5c8f51ae-17b5-422f-97a8-cab29903f086",
      "resource": {
        "resourceType": "Medication",
        "code": {
          "coding": [
            {
              "system": "http://www.nlm.nih.gov/research/umls/rxnorm",
              "code": "198440",
              "display": "Omeprazole-ac051abd"
            }
          ]
        },
        "status": "inactive"
      },
      "request": {
        "method": "POST",
        "url": "Medication"
      }
    },
    {
      "fullUrl": "urn:uuid:7e57235d-9164-4190-9def-aa97b2d082ff",
      "resource": {
        "resourceType": "AllergyIntolerance",
        "clinicalStatus": {
          "coding": [
            {
              "system": "http://terminology.hl7.org/CodeSystem/allergyintolerance-clinical",
              "code": "active"
            }
          ]
        },
        "verificationStatus": {
          "coding": [
            {
              "system": "http://terminology.hl7.org/CodeSystem/allergyintolerance-verification",
              "code": "confirmed"
            }
          ]
        },
        "type": "allergy",
        "category": [
          "medication"
        ],
        "code": {
          "coding": [
            {
              "system": "http://snomed.info/sct",
              "code": "387458008",
              "display": "Aspirin-ac051abd"
            }
          ]
        },
        "patient": {
          "reference": "urn:uuid:bea77d56-93d1-4234-bc90-86ffa43f6f3a"
        },
        "onsetDateTime": "2015-01-01",
        "reaction": [
          {
            "manifestation": [
              {
                "coding": [
                  {
                    "system": "http://snomed.info/sct",
                    "code": "271807003",
                    "display": "Rash"
                  }
                ]
              }
            ],
            "severity": "moderate"
          }
        ]
      },
      "request": {
        "method": "POST",
        "url": "AllergyIntolerance"
      }
    },
    {
      "fullUrl": "urn:uuid:adf12dc9-6fe3-4d1b-88bf-1630e6f87fb9",
      "resource": {
        "resourceType": "AllergyIntolerance",
        "clinicalStatus": {
          "coding": [
            {
              "system": "http://terminology.hl7.org/CodeSystem/allergyintolerance-clinical",
              "code": "active"
            }
          ]
        },
        "type": "allergy",
        "category": [
          "food"
        ],
        "code": {
          "coding": [
            {
              "system": "http://snomed.info/sct",
              "code": "91935009",
              "display": "Peanut-ac051abd"
            }
          ]
        },
        "patient": {
          "reference": "urn:uuid:bea77d56-93d1-4234-bc90-86ffa43f6f3a"
        }
      },
      "request": {
        "method": "POST",
        "url": "AllergyIntolerance"
      }
    },
    {
      "fullUrl": "urn:uuid:7985972a-daff-4b4d-8fb6-e9d4212ae1dd",
      "resource": {
        "resourceType": "AllergyIntolerance",
        "clinicalStatus": {
          "coding": [
            {
              "system": "http://terminology.hl7.org/CodeSystem/allergyintolerance-clinical",
              "code": "active"
            }
          ]
        },
        "type": "intolerance",
        "category": [
          "medication"
        ],
        "code": {
          "coding": [
            {
              "system": "http://snomed.info/sct",
              "code": "372687004",
              "display": "Penicillin-ac051abd"
            }
          ]
        },
        "patient": {
          "reference": "urn:uuid:50678827-4410-4503-8a8f-9ab617b76a0a"
        }
      },
      "request": {
        "method": "POST",
        "url": "AllergyIntolerance"
      }
    },
    {
      "fullUrl": "urn:uuid:98a96470-98ac-4465-9f70-b18130d48f7d",
      "resource": {
        "resourceType": "AllergyIntolerance",
        "clinicalStatus": {
          "coding": [
            {
              "system": "http://terminology.hl7.org/CodeSystem/allergyintolerance-clinical",
              "code": "resolved"
            }
          ]
        },
        "code": {
          "coding": [
            {
              "system": "http://snomed.info/sct",
              "code": "264295007",
              "display": "Latex-ac051abd"
            }
          ]
        },
        "patient": {
          "reference": "urn:uuid:2493ebb5-05a4-4592-bf6e-d895d6471403"
        }
      },
      "request": {
        "method": "POST",
        "url": "AllergyIntolerance"
      }
    },
    {
      "fullUrl": "urn:uuid:66636966-a97f-49cf-8db1-76a6fc9735ca",
      "resource": {
        "resourceType": "AllergyIntolerance",
        "clinicalStatus": {
          "coding": [
            {
              "system": "http://terminology.hl7.org/CodeSystem/allergyintolerance-clinical",
              "code": "active"
            }
          ]
        },
        "type": "allergy",
        "category": [
          "environment"
        ],
        "code": {
          "coding": [
            {
              "system": "http://snomed.info/sct",
              "code": "256259004",
              "display": "Pollen-ac051abd"
            }
          ]
        },
        "patient": {
          "reference": "urn:uuid:218ad5c5-a25c-4d03-bc22-1ad4678d6387"
        }
      },
      "request": {
        "method": "POST",
        "url": "AllergyIntolerance"
      }
    },
    {
      "fullUrl": "urn:uuid:18084d0c-5998-4c5d-b83a-ab2f28c59399",
      "resource": {
        "resourceType": "Procedure",
        "status": "completed",
        "code": {
          "coding": [
            {
              "system": "http://snomed.info/sct",
              "code": "80146002",
              "display": "Appendectomy-ac051abd"
            }
          ]
        },
        "subject": {
          "reference": "urn:uuid:bea77d56-93d1-4234-bc90-86ffa43f6f3a"
        },
        "encounter": {
          "reference": "urn:uuid:80b01226-dece-4403-b08a-515f123f03ac"
        },
        "performedDateTime": "2025-02-03T14:00:00Z",
        "performer": [
          {
            "actor": {
              "reference": "urn:uuid:193f5f02-a904-4198-ac5b-77b8a5e38100"
            }
          }
        ]
      },
      "request": {
        "method": "POST",
        "url": "Procedure"
      }
    },
    {
      "fullUrl": "urn:uuid:08c9e391-da7c-48c9-909e-988b6363fda0",
      "resource": {
        "resourceType": "Procedure",
        "status": "completed",
        "code": {
          "coding": [
            {
              "system": "http://snomed.info/sct",
              "code": "232717009",
              "display": "Coronography-ac051abd"
            }
          ]
        },
        "subject": {
          "reference": "urn:uuid:bea77d56-93d1-4234-bc90-86ffa43f6f3a"
        },
        "performedPeriod": {
          "start": "2025-02-04T08:00:00Z",
          "end": "2025-02-04T10:00:00Z"
        }
      },
      "request": {
        "method": "POST",
        "url": "Procedure"
      }
    },
    {
      "fullUrl": "urn:uuid:c07c6967-c827-4172-b0ff-172661f3f6af",
      "resource": {
        "resourceType": "Procedure",
        "status": "completed",
        "code": {
          "coding": [
            {
              "system": "http://snomed.info/sct",
              "code": "36969009",
              "display": "BloodDraw-ac051abd"
            }
          ]
        },
        "subject": {
          "reference": "urn:uuid:50678827-4410-4503-8a8f-9ab617b76a0a"
        },
        "encounter": {
          "reference": "urn:uuid:270e850f-45a4-457e-a790-808a6dc805d4"
        },
        "performedDateTime": "2025-03-15T14:15:00Z"
      },
      "request": {
        "method": "POST",
        "url": "Procedure"
      }
    },
    {
      "fullUrl": "urn:uuid:06683611-4012-4137-84d9-ac72d66aa403",
      "resource": {
        "resourceType": "Procedure",
        "status": "in-progress",
        "code": {
          "coding": [
            {
              "system": "http://snomed.info/sct",
              "code": "418891003",
              "display": "Dressing-ac051abd"
            }
          ]
        },
        "subject": {
          "reference": "urn:uuid:2493ebb5-05a4-4592-bf6e-d895d6471403"
        },
        "encounter": {
          "reference": "urn:uuid:b1d0f39f-7445-4871-be66-21a6c5a666fd"
        },
        "performedDateTime": "2026-02-25T11:00:00Z"
      },
      "request": {
        "method": "POST",
        "url": "Procedure"
      }
    },
    {
      "fullUrl": "urn:uuid:3d75e154-6e90-4c3a-b17d-68f1dcba94a4",
      "resource": {
        "resourceType": "Procedure",
        "status": "completed",
        "code": {
          "coding": [
            {
              "system": "http://snomed.info/sct",
              "code": "274025005",
              "display": "EKG-ac051abd"
            }
          ]
        },
        "subject": {
          "reference": "urn:uuid:218ad5c5-a25c-4d03-bc22-1ad4678d6387"
        },
        "encounter": {
          "reference": "urn:uuid:20ba1cd6-0717-434e-8684-4d9c7a4cc29a"
        },
        "performedDateTime": "2025-06-01T11:45:00Z"
      },
      "request": {
        "method": "POST",
        "url": "Procedure"
      }
    },
    {
      "fullUrl": "urn:uuid:d15934d0-a1d2-484b-bd61-4425d1e368de",
      "resource": {
        "resourceType": "ServiceRequest",
        "status": "active",
        "intent": "order",
        "code": {
          "coding": [
            {
              "system": "http://snomed.info/sct",
              "code": "26604007",
              "display": "FBC-ac051abd"
            }
          ]
        },
        "subject": {
          "reference": "urn:uuid:bea77d56-93d1-4234-bc90-86ffa43f6f3a"
        },
        "encounter": {
          "reference": "urn:uuid:2dc9178d-e04d-4a61-90d0-30d14ce4bf34"
        },
        "requester": {
          "reference": "urn:uuid:44a9d5bb-d8c1-40dd-be02-2ee64d90ea08"
        },
        "authoredOn": "2025-01-10"
      },
      "request": {
        "method": "POST",
        "url": "ServiceRequest"
      }
    },
    {
      "fullUrl": "urn:uuid:9339a7b5-7196-46a6-841e-5fb1637547dd",
      "resource": {
        "resourceType": "ServiceRequest",
        "status": "completed",
        "intent": "order",
        "code": {
          "coding": [
            {
              "system": "http://snomed.info/sct",
              "code": "77477000",
              "display": "CTScan-ac051abd"
            }
          ]
        },
        "subject": {
          "reference": "urn:uuid:bea77d56-93d1-4234-bc90-86ffa43f6f3a"
        },
        "encounter": {
          "reference": "urn:uuid:80b01226-dece-4403-b08a-515f123f03ac"
        },
        "authoredOn": "2025-02-01"
      },
      "request": {
        "method": "POST",
        "url": "ServiceRequest"
      }
    },
    {
      "fullUrl": "urn:uuid:a76d4479-69ff-4a51-afdd-37574581a267",
      "resource": {
        "resourceType": "ServiceRequest",
        "status": "active",
        "intent": "order",
        "code": {
          "coding": [
            {
              "system": "http://snomed.info/sct",
              "code": "104001",
              "display": "Excision-ac051abd"
            }
          ]
        },
        "subject": {
          "reference": "urn:uuid:50678827-4410-4503-8a8f-9ab617b76a0a"
        },
        "authoredOn": "2025-03-15"
      },
      "request": {
        "method": "POST",
        "url": "ServiceRequest"
      }
    },
    {
      "fullUrl": "urn:uuid:5fb5bb23-285d-4595-93e1-43e27f89e5a4",
      "resource": {
        "resourceType": "ServiceRequest",
        "status": "active",
        "intent": "order",
        "code": {
          "coding": [
            {
              "system": "http://snomed.info/sct",
              "code": "252275004",
              "display": "Imaging-ac051abd"
            }
          ]
        },
        "subject": {
          "reference": "urn:uuid:2493ebb5-05a4-4592-bf6e-d895d6471403"
        },
        "encounter": {
          "reference": "urn:uuid:b1d0f39f-7445-4871-be66-21a6c5a666fd"
        },
        "authoredOn": "2026-02-25"
      },
      "request": {
        "method": "POST",
        "url": "ServiceRequest"
      }
    },
    {
      "fullUrl": "urn:uuid:8d4fe4ed-f3af-469c-a473-86753d22b382",
      "resource": {
        "resourceType": "ServiceRequest",
        "status": "active",
        "intent": "plan",
        "code": {
          "coding": [
            {
              "system": "http://snomed.info/sct",
              "code": "409063005",
              "display": "Counseling-ac051abd"
            }
          ]
        },
        "subject": {
          "reference": "urn:uuid:218ad5c5-a25c-4d03-bc22-1ad4678d6387"
        },
        "authoredOn": "2025-06-01"
      },
      "request": {
        "method": "POST",
        "url": "ServiceRequest"
      }
    },
    {
      "fullUrl": "urn:uuid:7f78e54e-e5fc-459b-b59e-6b9329a863d2",
      "resource": {
        "resourceType": "CarePlan",
        "status": "active",
        "intent": "plan",
        "title": "DM Management-ac051abd",
        "subject": {
          "reference": "urn:uuid:bea77d56-93d1-4234-bc90-86ffa43f6f3a"
        },
        "encounter": {
          "reference": "urn:uuid:2dc9178d-e04d-4a61-90d0-30d14ce4bf34"
        },
        "addresses": [
          {
            "reference": "urn:uuid:0e319d9b-6137-4873-9a9b-1b708e63c6f0"
          }
        ],
        "category": [
          {
            "coding": [
              {
                "system": "http://hl7.org/fhir/us/core/CodeSystem/careplan-category",
                "code": "assess-plan"
              }
            ]
          }
        ]
      },
      "request": {
        "method": "POST",
        "url": "CarePlan"
      }
    },
    {
      "fullUrl": "urn:uuid:9b53ac58-7cec-4624-9fdf-a915f1782227",
      "resource": {
        "resourceType": "CarePlan",
        "status": "active",
        "intent": "plan",
        "title": "HTN Management-ac051abd",
        "subject": {
          "reference": "urn:uuid:bea77d56-93d1-4234-bc90-86ffa43f6f3a"
        },
        "addresses": [
          {
            "reference": "urn:uuid:cf9531fb-8fc3-4e49-a44b-af4a1a167328"
          }
        ]
      },
      "request": {
        "method": "POST",
        "url": "CarePlan"
      }
    },
    {
      "fullUrl": "urn:uuid:177ed431-ce7e-4752-b9b8-4b93f9b33909",
      "resource": {
        "resourceType": "CarePlan",
        "status": "completed",
        "intent": "plan",
        "title": "Pneumonia Recovery-ac051abd",
        "subject": {
          "reference": "urn:uuid:50678827-4410-4503-8a8f-9ab617b76a0a"
        },
        "addresses": [
          {
            "reference": "urn:uuid:c6e839c7-6051-40b2-9235-ae6dfbda2794"
          }
        ]
      },
      "request": {
        "method": "POST",
        "url": "CarePlan"
      }
    },
    {
      "fullUrl": "urn:uuid:b697b52a-1007-4300-a2c6-b3d4d14b06a0",
      "resource": {
        "resourceType": "CarePlan",
        "status": "active",
        "intent": "plan",
        "title": "DM1 Care-ac051abd",
        "subject": {
          "reference": "urn:uuid:2493ebb5-05a4-4592-bf6e-d895d6471403"
        },
        "addresses": [
          {
            "reference": "urn:uuid:7a567f8e-ee3f-42f3-b33e-c4d5836c9e25"
          }
        ]
      },
      "request": {
        "method": "POST",
        "url": "CarePlan"
      }
    },
    {
      "fullUrl": "urn:uuid:4afc3c61-7af2-441a-a46e-711eb91464da",
      "resource": {
        "resourceType": "CarePlan",
        "status": "active",
        "intent": "plan",
        "title": "Asthma Action-ac051abd",
        "subject": {
          "reference": "urn:uuid:218ad5c5-a25c-4d03-bc22-1ad4678d6387"
        },
        "encounter": {
          "reference": "urn:uuid:20ba1cd6-0717-434e-8684-4d9c7a4cc29a"
        },
        "addresses": [
          {
            "reference": "urn:uuid:d8a9eb3c-3270-4933-b806-8fbd721bd49d"
          }
        ]
      },
      "request": {
        "method": "POST",
        "url": "CarePlan"
      }
    },
    {
      "fullUrl": "urn:uuid:0402730f-ce4a-4249-b144-53157ffd1763",
      "resource": {
        "resourceType": "Immunization",
        "status": "completed",
        "vaccineCode": {
          "coding": [
            {
              "system": "http://hl7.org/fhir/sid/cvx",
              "code": "208",
              "display": "COVID19-ac051abd"
            }
          ]
        },
        "patient": {
          "reference": "urn:uuid:bea77d56-93d1-4234-bc90-86ffa43f6f3a"
        },
        "occurrenceDateTime": "2025-01-15T09:00:00Z",
        "encounter": {
          "reference": "urn:uuid:2dc9178d-e04d-4a61-90d0-30d14ce4bf34"
        }
      },
      "request": {
        "method": "POST",
        "url": "Immunization"
      }
    },
    {
      "fullUrl": "urn:uuid:ae3db585-f456-4d41-b58d-40ab2177c625",
      "resource": {
        "resourceType": "Immunization",
        "status": "completed",
        "vaccineCode": {
          "coding": [
            {
              "system": "http://hl7.org/fhir/sid/cvx",
              "code": "141",
              "display": "Influenza-ac051abd"
            }
          ]
        },
        "patient": {
          "reference": "urn:uuid:bea77d56-93d1-4234-bc90-86ffa43f6f3a"
        },
        "occurrenceDateTime": "2025-10-01"
      },
      "request": {
        "method": "POST",
        "url": "Immunization"
      }
    },
    {
      "fullUrl": "urn:uuid:4ddcabf2-5b4e-4c94-ba10-e1485fbac616",
      "resource": {
        "resourceType": "Immunization",
        "status": "completed",
        "vaccineCode": {
          "coding": [
            {
              "system": "http://hl7.org/fhir/sid/cvx",
              "code": "08",
              "display": "HepB-ac051abd"
            }
          ]
        },
        "patient": {
          "reference": "urn:uuid:50678827-4410-4503-8a8f-9ab617b76a0a"
        },
        "occurrenceDateTime": "2025-04-01"
      },
      "request": {
        "method": "POST",
        "url": "Immunization"
      }
    },
    {
      "fullUrl": "urn:uuid:b6f7fe43-f4bf-47c9-ac89-5fc12cfcd465",
      "resource": {
        "resourceType": "Immunization",
        "status": "not-done",
        "vaccineCode": {
          "coding": [
            {
              "system": "http://hl7.org/fhir/sid/cvx",
              "code": "03",
              "display": "MMR-ac051abd"
            }
          ]
        },
        "patient": {
          "reference": "urn:uuid:a7a17aff-b9e8-4425-9889-419e46d38240"
        },
        "occurrenceDateTime": "2025-05-01",
        "statusReason": {
          "coding": [
            {
              "system": "http://terminology.hl7.org/CodeSystem/v3-ActReason",
              "code": "MEDPREC"
            }
          ]
        }
      },
      "request": {
        "method": "POST",
        "url": "Immunization"
      }
    },
    {
      "fullUrl": "urn:uuid:1718ea4f-f7da-4054-aacc-99bc57d7f112",
      "resource": {
        "resourceType": "Immunization",
        "status": "completed",
        "vaccineCode": {
          "coding": [
            {
              "system": "http://hl7.org/fhir/sid/cvx",
              "code": "113",
              "display": "Tdap-ac051abd"
            }
          ]
        },
        "patient": {
          "reference": "urn:uuid:218ad5c5-a25c-4d03-bc22-1ad4678d6387"
        },
        "occurrenceDateTime": "2025-06-01",
        "encounter": {
          "reference": "urn:uuid:20ba1cd6-0717-434e-8684-4d9c7a4cc29a"
        }
      },
      "request": {
        "method": "POST",
        "url": "Immunization"
      }
    }
  ]
}