{
  "resourceType": "Bundle",
  "type": "transaction",
  "entry": [
    {
      "fullUrl": "urn:uuid:b8a6e7bd-5aa1-40ae-92d5-ba80241abde4",
      "resource": {
        "resourceType": "Organization",
        "name": "Central Hospital-1e91616a",
        "identifier": [
          {
            "system": "http://example.com/org",
            "value": "ORG-001-1e91616a"
          }
        ],
        "type": [
          {
            "coding": [
              {
                "system": "http://terminology.hl7.org/CodeSystem/organization-type",
                "code": "prov"
              }
            ]
          }
        ],
        "telecom": [
          {
            "system": "phone",
            "value": "555-0100"
          }
        ],
        "address": [
          {
            "line": [
              "100 Main St"
            ],
            "city": "Springfield",
            "state": "IL",
            "postalCode": "62701",
            "country": "US"
          }
        ]
      },
      "request": {
        "method": "POST",
        "url": "Organization"
      }
    },
    {
      "fullUrl": "urn:uuid:a3b3cb57-e782-45e6-8001-56a29131a89e",
      "resource": {
        "resourceType": "Organization",
        "name": "East Wing Lab-1e91616a",
        "identifier": [
          {
            "system": "http://example.com/org",
            "value": "ORG-002-1e91616a"
          }
        ],
        "type": [
          {
            "coding": [
              {
                "system": "http://terminology.hl7.org/CodeSystem/organization-type",
                "code": "dept"
              }
            ]
          }
        ]
      },
      "request": {
        "method": "POST",
        "url": "Organization"
      }
    },
    {
      "fullUrl": "urn:uuid:2b44d831-5d5a-485e-acee-fbcb547d1e79",
      "resource": {
        "resourceType": "Organization",
        "name": "Pharmacy Services-1e91616a",
        "identifier": [
          {
            "system": "http://example.com/org",
            "value": "ORG-003-1e91616a"
          }
        ]
      },
      "request": {
        "method": "POST",
        "url": "Organization"
      }
    },
    {
      "fullUrl": "urn:uuid:247b539b-f237-4229-ab69-2e3a0e0a4cd5",
      "resource": {
        "resourceType": "Organization",
        "name": "Insurance Corp-1e91616a",
        "identifier": [
          {
            "system": "http://example.com/org",
            "value": "ORG-004-1e91616a"
          }
        ],
        "type": [
          {
            "coding": [
              {
                "system": "http://terminology.hl7.org/CodeSystem/organization-type",
                "code": "ins"
              }
            ]
          }
        ]
      },
      "request": {
        "method": "POST",
        "url": "Organization"
      }
    },
    {
      "fullUrl": "urn:uuid:920ff1c2-2e3d-492c-8a97-daf8c54bb4f7",
      "resource": {
        "resourceType": "Organization",
        "name": "Specialty Clinic-1e91616a",
        "identifier": [
          {
            "system": "http://example.com/org",
            "value": "ORG-005-1e91616a"
          }
        ],
        "address": [
          {
            "line": [
              "200 Oak Ave"
            ],
            "city": "Shelbyville",
            "state": "IL",
            "postalCode": "62702",
            "country": "US"
          }
        ]
      },
      "request": {
        "method": "POST",
        "url": "Organization"
      }
    },
    {
      "fullUrl": "urn:uuid:d570e1b0-10a1-43ec-ac0e-8986b8fab616",
      "resource": {
        "resourceType": "Practitioner",
        "name": [
          {
            "family": "Smith-1e91616a",
            "given": [
              "John",
              "A"
            ],
            "prefix": [
              "Dr."
            ]
          }
        ],
        "identifier": [
          {
            "system": "http://example.com/npi",
            "value": "NPI-001-1e91616a"
          }
        ],
        "gender": "male",
        "birthDate": "1975-03-15",
        "telecom": [
          {
            "system": "email",
            "value": "john.smith-1e91616a@hospital.com"
          }
        ],
        "address": [
          {
            "line": [
              "100 Main St"
            ],
            "city": "Springfield",
            "state": "IL",
            "postalCode": "62701",
            "country": "US"
          }
        ]
      },
      "request": {
        "method": "POST",
        "url": "Practitioner"
      }
    },
    {
      "fullUrl": "urn:uuid:2782f2f8-b316-4a31-aabb-16a0dd0f94e1",
      "resource": {
        "resourceType": "Practitioner",
        "name": [
          {
            "family": "Johnson-1e91616a",
            "given": [
              "Emily"
            ]
          }
        ],
        "identifier": [
          {
            "system": "http://example.com/npi",
            "value": "NPI-002-1e91616a"
          }
        ],
        "gender": "female"
      },
      "request": {
        "method": "POST",
        "url": "Practitioner"
      }
    },
    {
      "fullUrl": "urn:uuid:73cb0667-fea7-4d47-9591-12bc58d3da4c",
      "resource": {
        "resourceType": "Practitioner",
        "name": [
          {
            "family": "Williams-1e91616a",
            "given": [
              "Robert"
            ]
          }
        ],
        "identifier": [
          {
            "system": "http://example.com/npi",
            "value": "NPI-003-1e91616a"
          }
        ],
        "gender": "male"
      },
      "request": {
        "method": "POST",
        "url": "Practitioner"
      }
    },
    {
      "fullUrl": "urn:uuid:c63de4b2-6508-4ef9-9f4d-d030c1c813e0",
      "resource": {
        "resourceType": "Practitioner",
        "name": [
          {
            "family": "Brown-1e91616a",
            "given": [
              "Sarah"
            ]
          }
        ],
        "identifier": [
          {
            "system": "http://example.com/npi",
            "value": "NPI-004-1e91616a"
          }
        ],
        "gender": "female"
      },
      "request": {
        "method": "POST",
        "url": "Practitioner"
      }
    },
    {
      "fullUrl": "urn:uuid:b8030ac2-33ed-4137-b448-97aae9a801b1",
      "resource": {
        "resourceType": "Practitioner",
        "name": [
          {
            "family": "Davis-1e91616a",
            "given": [
              "Michael",
              "J"
            ]
          }
        ],
        "identifier": [
          {
            "system": "http://example.com/npi",
            "value": "NPI-005-1e91616a"
          }
        ],
        "gender": "male",
        "telecom": [
          {
            "system": "phone",
            "value": "555-0200"
          },
          {
            "system": "email",
            "value": "michael.davis-1e91616a@hospital.com"
          }
        ]
      },
      "request": {
        "method": "POST",
        "url": "Practitioner"
      }
    },
    {
      "fullUrl": "urn:uuid:2f6d60a3-bab8-49c0-b486-30fa07bb06c8",
      "resource": {
        "resourceType": "PractitionerRole",
        "practitioner": {
          "reference": "urn:uuid:d570e1b0-10a1-43ec-ac0e-8986b8fab616"
        },
        "organization": {
          "reference": "urn:uuid:b8a6e7bd-5aa1-40ae-92d5-ba80241abde4"
        },
        "code": [
          {
            "coding": [
              {
                "system": "http://snomed.info/sct",
                "code": "59058001",
                "display": "GP-1e91616a"
              }
            ]
          }
        ],
        "active": true
      },
      "request": {
        "method": "POST",
        "url": "PractitionerRole"
      }
    },
    {
      "fullUrl": "urn:uuid:f8836442-56b5-4fac-a8c2-4f05f7bef62a",
      "resource": {
        "resourceType": "PractitionerRole",
        "practitioner": {
          "reference": "urn:uuid:2782f2f8-b316-4a31-aabb-16a0dd0f94e1"
        },
        "organization": {
          "reference": "urn:uuid:a3b3cb57-e782-45e6-8001-56a29131a89e"
        },
        "code": [
          {
            "coding": [
              {
                "system": "http://snomed.info/sct",
                "code": "61246008",
                "display": "Lab-1e91616a"
              }
            ]
          }
        ]
      },
      "request": {
        "method": "POST",
        "url": "PractitionerRole"
      }
    },
    {
      "fullUrl": "urn:uuid:94c4921b-36e2-4c0c-a53d-dca4b22d7aee",
      "resource": {
        "resourceType": "PractitionerRole",
        "practitioner": {
          "reference": "urn:uuid:73cb0667-fea7-4d47-9591-12bc58d3da4c"
        },
        "organization": {
          "reference": "urn:uuid:b8a6e7bd-5aa1-40ae-92d5-ba80241abde4"
        },
        "code": [
          {
            "coding": [
              {
                "system": "http://snomed.info/sct",
                "code": "304292004",
                "display": "Surgeon-1e91616a"
              }
            ]
          }
        ]
      },
      "request": {
        "method": "POST",
        "url": "PractitionerRole"
      }
    },
    {
      "fullUrl": "urn:uuid:53814ba8-8652-4f78-b36c-9a2f983c4213",
      "resource": {
        "resourceType": "PractitionerRole",
        "practitioner": {
          "reference": "urn:uuid:c63de4b2-6508-4ef9-9f4d-d030c1c813e0"
        },
        "organization": {
          "reference": "urn:uuid:2b44d831-5d5a-485e-acee-fbcb547d1e79"
        },
        "code": [
          {
            "coding": [
              {
                "system": "http://snomed.info/sct",
                "code": "46255001",
                "display": "Pharmacist-1e91616a"
              }
            ]
          }
        ]
      },
      "request": {
        "method": "POST",
        "url": "PractitionerRole"
      }
    },
    {
      "fullUrl": "urn:uuid:b01e0898-a144-43e1-b5dd-76b61a906ffc",
      "resource": {
        "resourceType": "PractitionerRole",
        "practitioner": {
          "reference": "urn:uuid:b8030ac2-33ed-4137-b448-97aae9a801b1"
        },
        "organization": {
          "reference": "urn:uuid:920ff1c2-2e3d-492c-8a97-daf8c54bb4f7"
        },
        "code": [
          {
            "coding": [
              {
                "system": "http://snomed.info/sct",
                "code": "309343006",
                "display": "Specialist-1e91616a"
              }
            ]
          }
        ]
      },
      "request": {
        "method": "POST",
        "url": "PractitionerRole"
      }
    },
    {
      "fullUrl": "urn:uuid:831bfd02-a0e2-4f7d-a71b-2e6a2e2f028e",
      "resource": {
        "resourceType": "Patient",
        "active": true,
        "gender": "male",
        "birthDate": "1985-06-15",
        "name": [
          {
            "use": "official",
            "family": "Doe-1e91616a",
            "given": [
              "John",
              "Michael"
            ]
          },
          {
            "use": "nickname",
            "given": [
              "Johnny"
            ]
          }
        ],
        "identifier": [
          {
            "system": "http://example.com/mrn",
            "value": "MRN-001-1e91616a"
          },
          {
            "system": "http://example.com/ssn",
            "value": "SSN-001-1e91616a"
          }
        ],
        "telecom": [
          {
            "system": "phone",
            "value": "555-1001",
            "use": "home"
          },
          {
            "system": "email",
            "value": "john.doe-1e91616a@example.com",
            "use": "work"
          }
        ],
        "address": [
          {
            "use": "home",
            "line": [
              "123 Elm St",
              "Apt 4B"
            ],
            "city": "Springfield",
            "state": "IL",
            "postalCode": "62701",
            "country": "US"
          }
        ],
        "managingOrganization": {
          "reference": "urn:uuid:b8a6e7bd-5aa1-40ae-92d5-ba80241abde4"
        },
        "generalPractitioner": [
          {
            "reference": "urn:uuid:d570e1b0-10a1-43ec-ac0e-8986b8fab616"
          }
        ],
        "meta": {
          "tag": [
            {
              "system": "http://example.com/tags",
              "code": "vip-1e91616a"
            }
          ]
        },
        "maritalStatus": {
          "coding": [
            {
              "system": "http://terminology.hl7.org/CodeSystem/v3-MaritalStatus",
              "code": "M",
              "display": "Married"
            }
          ]
        },
        "communication": [
          {
            "language": {
              "coding": [
                {
                  "system": "urn:ietf:bcp:47",
                  "code": "en"
                }
              ]
            }
          }
        ]
      },
      "request": {
        "method": "POST",
        "url": "Patient"
      }
    },
    {
      "fullUrl": "urn:uuid:d6ec4cff-4115-45b1-8a8d-30d71896fc8b",
      "resource": {
        "resourceType": "Patient",
        "active": true,
        "gender": "female",
        "birthDate": "1990-11-22",
        "name": [
          {
            "use": "official",
            "family": "Smith-1e91616a",
            "given": [
              "Jane",
              "Elizabeth"
            ]
          }
        ],
        "identifier": [
          {
            "system": "http://example.com/mrn",
            "value": "MRN-002-1e91616a"
          }
        ],
        "telecom": [
          {
            "system": "phone",
            "value": "555-1002"
          }
        ],
        "address": [
          {
            "use": "home",
            "line": [
              "456 Oak Ave"
            ],
            "city": "Chicago",
            "state": "IL",
            "postalCode": "60601",
            "country": "US"
          }
        ],
        "managingOrganization": {
          "reference": "urn:uuid:b8a6e7bd-5aa1-40ae-92d5-ba80241abde4"
        }
      },
      "request": {
        "method": "POST",
        "url": "Patient"
      }
    },
    {
      "fullUrl": "urn:uuid:795a9058-89e2-434b-b535-7fb352be2f41",
      "resource": {
        "resourceType": "Patient",
        "active": true,
        "gender": "male",
        "birthDate": "1978-01-30",
        "name": [
          {
            "use": "official",
            "family": "Williams-1e91616a",
            "given": [
              "Robert"
            ]
          }
        ],
        "identifier": [
          {
            "system": "http://example.com/mrn",
            "value": "MRN-003-1e91616a"
          }
        ],
        "address": [
          {
            "line": [
              "789 Pine Rd"
            ],
            "city": "Shelbyville",
            "state": "IL",
            "postalCode": "62702",
            "country": "US"
          },
          {
            "use": "work",
            "line": [
              "100 Main St"
            ],
            "city": "Springfield",
            "state": "IL"
          }
        ],
        "generalPractitioner": [
          {
            "reference": "urn:uuid:73cb0667-fea7-4d47-9591-12bc58d3da4c"
          }
        ],
        "meta": {
          "tag": [
            {
              "system": "http://example.com/tags",
              "code": "urgent-1e91616a"
            },
            {
              "system": "http://example.com/tags",
              "code": "flagged-1e91616a"
            }
          ],
          "security": [
            {
              "system": "http://terminology.hl7.org/CodeSystem/v3-Confidentiality",
              "code": "R"
            }
          ]
        }
      },
      "request": {
        "method": "POST",
        "url": "Patient"
      }
    },
    {
      "fullUrl": "urn:uuid:910115c9-a53d-4620-a006-c10d91638b56",
      "resource": {
        "resourceType": "Patient",
        "active": false,
        "gender": "female",
        "birthDate": "2005-08-10",
        "name": [
          {
            "use": "official",
            "family": "Davis-1e91616a",
            "given": [
              "Alice"
            ]
          }
        ],
        "identifier": [
          {
            "system": "http://example.com/mrn",
            "value": "MRN-004-1e91616a"
          }
        ],
        "deceasedBoolean": false
      },
      "request": {
        "method": "POST",
        "url": "Patient"
      }
    },
    {
      "fullUrl": "urn:uuid:4fd18524-86c5-4b7f-b8e8-0846a7df99ce",
      "resource": {
        "resourceType": "Patient",
        "active": true,
        "gender": "other",
        "birthDate": "2000-03-01",
        "name": [
          {
            "use": "official",
            "family": "Garcia-1e91616a",
            "given": [
              "Alex",
              "M"
            ]
          }
        ],
        "identifier": [
          {
            "system": "http://example.com/mrn",
            "value": "MRN-005-1e91616a"
          }
        ],
        "telecom": [
          {
            "system": "email",
            "value": "alex.garcia-1e91616a@example.com"
          }
        ]
      },
      "request": {
        "method": "POST",
        "url": "Patient"
      }
    },
    {
      "fullUrl": "urn:uuid:ec7e481e-8fb8-4154-afa7-e7e1b62a43f5",
      "resource": {
        "resourceType": "Patient",
        "active": true,
        "gender": "male",
        "birthDate": "1960-12-25",
        "name": [
          {
            "use": "official",
            "family": "Wilson-1e91616a",
            "given": [
              "George"
            ]
          }
        ],
        "identifier": [
          {
            "system": "http://example.com/mrn",
            "value": "MRN-006-1e91616a"
          }
        ],
        "deceasedDateTime": "2025-01-15T10:30:00Z"
      },
      "request": {
        "method": "POST",
        "url": "Patient"
      }
    },
    {
      "fullUrl": "urn:uuid:15206435-20a1-42d8-a3be-90d50b36b7fa",
      "resource": {
        "resourceType": "Patient",
        "active": true,
        "gender": "female",
        "birthDate": "1995-07-04",
        "name": [
          {
            "use": "official",
            "family": "Martinez-1e91616a",
            "given": [
              "Sofia",
              "Isabella"
            ]
          },
          {
            "use": "maiden",
            "family": "Lopez-1e91616a"
          }
        ],
        "identifier": [
          {
            "system": "http://example.com/mrn",
            "value": "MRN-007-1e91616a"
          },
          {
            "system": "http://example.com/passport",
            "value": "PP-007-1e91616a"
          }
        ],
        "telecom": [
          {
            "system": "phone",
            "value": "555-1007",
            "use": "mobile"
          },
          {
            "system": "phone",
            "value": "555-1008",
            "use": "home"
          },
          {
            "system": "email",
            "value": "sofia-1e91616a@example.com"
          }
        ],
        "address": [
          {
            "use": "home",
            "line": [
              "1000 Maple Dr"
            ],
            "city": "Capital City",
            "state": "CA",
            "postalCode": "90001",
            "country": "US"
          },
          {
            "use": "temp",
            "city": "TempCity",
            "state": "NY"
          }
        ],
        "contact": [
          {
            "relationship": [
              {
                "coding": [
                  {
                    "system": "http://terminology.hl7.org/CodeSystem/v2-0131",
                    "code": "N"
                  }
                ]
              }
            ],
            "name": {
              "family": "EmergencyContact-1e91616a",
              "given": [
                "Carlos"
              ]
            },
            "telecom": [
              {
                "system": "phone",
                "value": "555-9999"
              }
            ]
          }
        ]
      },
      "request": {
        "method": "POST",
        "url": "Patient"
      }
    },
    {
      "fullUrl": "urn:uuid:be01aff7-ab76-4d31-bef2-55be21cc6593",
      "resource": {
        "resourceType": "Encounter",
        "status": "finished",
        "class": {
          "system": "http://terminology.hl7.org/CodeSystem/v3-ActCode",
          "code": "AMB",
          "display": "Ambulatory-1e91616a"
        },
        "subject": {
          "reference": "urn:uuid:831bfd02-a0e2-4f7d-a71b-2e6a2e2f028e"
        },
        "serviceProvider": {
          "reference": "urn:uuid:b8a6e7bd-5aa1-40ae-92d5-ba80241abde4"
        },
        "participant": [
          {
            "individual": {
              "reference": "urn:uuid:d570e1b0-10a1-43ec-ac0e-8986b8fab616"
            }
          }
        ],
        "period": {
          "start": "2025-01-10T08:00:00Z",
          "end": "2025-01-10T09:00:00Z"
        },
        "type": [
          {
            "coding": [
              {
                "system": "http://snomed.info/sct",
                "code": "308335008",
                "display": "OPD-1e91616a"
              }
            ]
          }
        ]
      },
      "request": {
        "method": "POST",
        "url": "Encounter"
      }
    },
    {
      "fullUrl": "urn:uuid:299719d7-504f-4dc1-80d9-a1bb5846bf29",
      "resource": {
        "resourceType": "Encounter",
        "status": "finished",
        "class": {
          "system": "http://terminology.hl7.org/CodeSystem/v3-ActCode",
          "code": "IMP"
        },
        "subject": {
          "reference": "urn:uuid:831bfd02-a0e2-4f7d-a71b-2e6a2e2f028e"
        },
        "serviceProvider": {
          "reference": "urn:uuid:b8a6e7bd-5aa1-40ae-92d5-ba80241abde4"
        },
        "period": {
          "start": "2025-02-01T10:00:00Z",
          "end": "2025-02-05T14:00:00Z"
        }
      },
      "request": {
        "method": "POST",
        "url": "Encounter"
      }
    },
    {
      "fullUrl": "urn:uuid:12d90fe2-f2e8-4b22-a7df-5f27168971a2",
      "resource": {
        "resourceType": "Encounter",
        "status": "finished",
        "class": {
          "system": "http://terminology.hl7.org/CodeSystem/v3-ActCode",
          "code": "AMB"
        },
        "subject": {
          "reference": "urn:uuid:d6ec4cff-4115-45b1-8a8d-30d71896fc8b"
        },
        "serviceProvider": {
          "reference": "urn:uuid:b8a6e7bd-5aa1-40ae-92d5-ba80241abde4"
        },
        "participant": [
          {
            "individual": {
              "reference": "urn:uuid:2782f2f8-b316-4a31-aabb-16a0dd0f94e1"
            }
          }
        ],
        "period": {
          "start": "2025-03-15T14:00:00Z"
        }
      },
      "request": {
        "method": "POST",
        "url": "Encounter"
      }
    },
    {
      "fullUrl": "urn:uuid:a67b4f5d-df9a-43f7-95be-c8b0429e4cee",
      "resource": {
        "resourceType": "Encounter",
        "status": "in-progress",
        "class": {
          "system": "http://terminology.hl7.org/CodeSystem/v3-ActCode",
          "code": "EMER"
        },
        "subject": {
          "reference": "urn:uuid:795a9058-89e2-434b-b535-7fb352be2f41"
        },
        "serviceProvider": {
          "reference": "urn:uuid:b8a6e7bd-5aa1-40ae-92d5-ba80241abde4"
        },
        "period": {
          "start": "2026-02-25T10:00:00Z"
        }
      },
      "request": {
        "method": "POST",
        "url": "Encounter"
      }
    },
    {
      "fullUrl": "urn:uuid:8ee0741a-0f8d-4754-b610-d50cc5357b94",
      "resource": {
        "resourceType": "Encounter",
        "status": "planned",
        "class": {
          "system": "http://terminology.hl7.org/CodeSystem/v3-ActCode",
          "code": "AMB"
        },
        "subject": {
          "reference": "urn:uuid:910115c9-a53d-4620-a006-c10d91638b56"
        },
        "period": {
          "start": "2026-03-01T09:00:00Z"
        }
      },
      "request": {
        "method": "POST",
        "url": "Encounter"
      }
    },
    {
      "fullUrl": "urn:uuid:c60bba06-dce9-4365-a6a3-afa07e7a0045",
      "resource": {
        "resourceType": "Encounter",
        "status": "finished",
        "class": {
          "system": "http://terminology.hl7.org/CodeSystem/v3-ActCode",
          "code": "AMB"
        },
        "subject": {
          "reference": "urn:uuid:15206435-20a1-42d8-a3be-90d50b36b7fa"
        },
        "serviceProvider": {
          "reference": "urn:uuid:920ff1c2-2e3d-492c-8a97-daf8c54bb4f7"
        },
        "participant": [
          {
            "individual": {
              "reference": "urn:uuid:b8030ac2-33ed-4137-b448-97aae9a801b1"
            }
          }
        ],
        "period": {
          "start": "2025-06-01T11:00:00Z",
          "end": "2025-06-01T12:00:00Z"
        }
      },
      "request": {
        "method": "POST",
        "url": "Encounter"
      }
    },
    {
      "fullUrl": "urn:uuid:43b350f7-e1b9-4ba9-a767-1820fd8793d9",
      "resource": {
        "resourceType": "Condition",
        "clinicalStatus": {
          "coding": [
            {
              "system": "http://terminology.hl7.org/CodeSystem/condition-clinical",
              "code": "active"
            }
          ]
        },
        "verificationStatus": {
          "coding": [
            {
              "system": "http://terminology.hl7.org/CodeSystem/condition-ver-status",
              "code": "confirmed"
            }
          ]
        },
        "code": {
          "coding": [
            {
              "system": "http://snomed.info/sct",
              "code": "44054006",
              "display": "Type2DM-1e91616a"
            }
          ]
        },
        "subject": {
          "reference": "urn:uuid:831bfd02-a0e2-4f7d-a71b-2e6a2e2f028e"
        },
        "encounter": {
          "reference": "urn:uuid:be01aff7-ab76-4d31-bef2-55be21cc6593"
        },
        "onsetDateTime": "2020-01-01"
      },
      "request": {
        "method": "POST",
        "url": "Condition"
      }
    },
    {
      "fullUrl": "urn:uuid:763f4ec4-4660-44bb-94e3-f19528e10e13",
      "resource": {
        "resourceType": "Condition",
        "clinicalStatus": {
          "coding": [
            {
              "system": "http://terminology.hl7.org/CodeSystem/condition-clinical",
              "code": "active"
            }
          ]
        },
        "verificationStatus": {
          "coding": [
            {
              "system": "http://terminology.hl7.org/CodeSystem/condition-ver-status",
              "code": "confirmed"
            }
          ]
        },
        "code": {
          "coding": [
            {
              "system": "http://snomed.info/sct",
              "code": "38341003",
              "display": "Hypertension-1e91616a"
            }
          ]
        },
        "subject": {
          "reference": "urn:uuid:831bfd02-a0e2-4f7d-a71b-2e6a2e2f028e"
        },
        "onsetDateTime": "2018-06-15"
      },
      "request": {
        "method": "POST",
        "url": "Condition"
      }
    },
    {
      "fullUrl": "urn:uuid:8e25921e-fe4c-4c2f-91f8-307d839dae95",
      "resource": {
        "resourceType": "Condition",
        "clinicalStatus": {
          "coding": [
            {
              "system": "http://terminology.hl7.org/CodeSystem/condition-clinical",
              "code": "resolved"
            }
          ]
        },
        "code": {
          "coding": [
            {
              "system": "http://snomed.info/sct",
              "code": "195662009",
              "display": "Pneumonia-1e91616a"
            }
          ]
        },
        "subject": {
          "reference": "urn:uuid:d6ec4cff-4115-45b1-8a8d-30d71896fc8b"
        },
        "encounter": {
          "reference": "urn:uuid:12d90fe2-f2e8-4b22-a7df-5f27168971a2"
        },
        "onsetDateTime": "2025-03-10",
        "abatementDateTime": "2025-03-25"
      },
      "request": {
        "method": "POST",
        "url": "Condition"
      }
    },
    {
      "fullUrl": "urn:uuid:33fb59f2-3854-4a47-a671-a90f95e708c0",
      "resource": {
        "resourceType": "Condition",
        "clinicalStatus": {
          "coding": [
            {
              "system": "http://terminology.hl7.org/CodeSystem/condition-clinical",
              "code": "active"
            }
          ]
        },
        "code": {
          "coding": [
            {
              "system": "http://snomed.info/sct",
              "code": "73211009",
              "display": "DiabetesI-1e91616a"
            }
          ]
        },
        "subject": {
          "reference": "urn:uuid:795a9058-89e2-434b-b535-7fb352be2f41"
        },
        "onsetDateTime": "2010-05-01"
      },
      "request": {
        "method": "POST",
        "url": "Condition"
      }
    },
    {
      "fullUrl": "urn:uuid:03bcb8d5-86d1-48ed-94dc-20e94ec2d912",
      "resource": {
        "resourceType": "Condition",
        "clinicalStatus": {
          "coding": [
            {
              "system": "http://terminology.hl7.org/CodeSystem/condition-clinical",
              "code": "active"
            }
          ]
        },
        "code": {
          "coding": [
            {
              "system": "http://snomed.info/sct",
              "code": "195967001",
              "display": "Asthma-1e91616a"
            }
          ]
        },
        "subject": {
          "reference": "urn:uuid:15206435-20a1-42d8-a3be-90d50b36b7fa"
        },
        "encounter": {
          "reference": "urn:uuid:c60bba06-dce9-4365-a6a3-afa07e7a0045"
        },
        "onsetDateTime": "2015-08-20"
      },
      "request": {
        "method": "POST",
        "url": "Condition"
      }
    },
    {
      "fullUrl": "urn:uuid:e8bf0fef-c517-49f7-9996-2dedefefaa6b",
      "resource": {
        "resourceType": "Observation",
        "status": "final",
        "code": {
          "coding": [
            {
              "system": "http://loinc.org",
              "code": "29463-7",
              "display": "BodyWeight-1e91616a"
            }
          ]
        },
        "subject": {
          "reference": "urn:uuid:831bfd02-a0e2-4f7d-a71b-2e6a2e2f028e"
        },
        "encounter": {
          "reference": "urn:uuid:be01aff7-ab76-4d31-bef2-55be21cc6593"
        },
        "valueQuantity": {
          "value": 75.5,
          "unit": "kg",
          "system": "http://unitsofmeasure.org",
          "code": "kg"
        },
        "effectiveDateTime": "2025-01-10T08:30:00Z",
        "category": [
          {
            "coding": [
              {
                "system": "http://terminology.hl7.org/CodeSystem/observation-category",
                "code": "vital-signs"
              }
            ]
          }
        ]
      },
      "request": {
        "method": "POST",
        "url": "Observation"
      }
    },
    {
      "fullUrl": "urn:uuid:afe5967b-1b5a-4373-bb0d-d8c764bc2ed5",
      "resource": {
        "resourceType": "Observation",
        "status": "final",
        "code": {
          "coding": [
            {
              "system": "http://loinc.org",
              "code": "8867-4",
              "display": "HeartRate-1e91616a"
            }
          ]
        },
        "subject": {
          "reference": "urn:uuid:831bfd02-a0e2-4f7d-a71b-2e6a2e2f028e"
        },
        "encounter": {
          "reference": "urn:uuid:be01aff7-ab76-4d31-bef2-55be21cc6593"
        },
        "valueQuantity": {
          "value": 72,
          "unit": "/min",
          "system": "http://unitsofmeasure.org",
          "code": "/min"
        },
        "effectiveDateTime": "2025-01-10T08:30:00Z"
      },
      "request": {
        "method": "POST",
        "url": "Observation"
      }
    },
    {
      "fullUrl": "urn:uuid:848d885a-e38f-4f85-93bc-3f0cf04aeea9",
      "resource": {
        "resourceType": "Observation",
        "status": "final",
        "code": {
          "coding": [
            {
              "system": "http://loinc.org",
              "code": "85354-9",
              "display": "BP-1e91616a"
            }
          ]
        },
        "subject": {
          "reference": "urn:uuid:831bfd02-a0e2-4f7d-a71b-2e6a2e2f028e"
        },
        "encounter": {
          "reference": "urn:uuid:299719d7-504f-4dc1-80d9-a1bb5846bf29"
        },
        "component": [
          {
            "code": {
              "coding": [
                {
                  "system": "http://loinc.org",
                  "code": "8480-6"
                }
              ]
            },
            "valueQuantity": {
              "value": 120,
              "unit": "mmHg"
            }
          },
          {
            "code": {
              "coding": [
                {
                  "system": "http://loinc.org",
                  "code": "8462-4"
                }
              ]
            },
            "valueQuantity": {
              "value": 80,
              "unit": "mmHg"
            }
          }
        ],
        "effectiveDateTime": "2025-02-01T10:30:00Z"
      },
      "request": {
        "method": "POST",
        "url": "Observation"
      }
    },
    {
      "fullUrl": "urn:uuid:8805e64a-a65d-4091-8d5e-e4bfcc004a4a",
      "resource": {
        "resourceType": "Observation",
        "status": "final",
        "code": {
          "coding": [
            {
              "system": "http://loinc.org",
              "code": "2339-0",
              "display": "Glucose-1e91616a"
            }
          ]
        },
        "subject": {
          "reference": "urn:uuid:d6ec4cff-4115-45b1-8a8d-30d71896fc8b"
        },
        "encounter": {
          "reference": "urn:uuid:12d90fe2-f2e8-4b22-a7df-5f27168971a2"
        },
        "valueQuantity": {
          "value": 95,
          "unit": "mg/dL"
        },
        "effectiveDateTime": "2025-03-15T14:30:00Z",
        "interpretation": [
          {
            "coding": [
              {
                "system": "http://terminology.hl7.org/CodeSystem/v3-ObservationInterpretation",
                "code": "N",
                "display": "Normal"
              }
            ]
          }
        ]
      },
      "request": {
        "method": "POST",
        "url": "Observation"
      }
    },
    {
      "fullUrl": "urn:uuid:2e4e4436-5f36-4a89-b4cf-b78eb2346aba",
      "resource": {
        "resourceType": "Observation",
        "status": "final",
        "code": {
          "coding": [
            {
              "system": "http://loinc.org",
              "code": "718-7",
              "display": "Hemoglobin-1e91616a"
            }
          ]
        },
        "subject": {
          "reference": "urn:uuid:795a9058-89e2-434b-b535-7fb352be2f41"
        },
        "valueQuantity": {
          "value": 14.2,
          "unit": "g/dL"
        },
        "effectiveDateTime": "2025-04-01"
      },
      "request": {
        "method": "POST",
        "url": "Observation"
      }
    },
    {
      "fullUrl": "urn:uuid:7b268bf8-64de-4eb2-ac3c-4e685238e3ee",
      "resource": {
        "resourceType": "Observation",
        "status": "preliminary",
        "code": {
          "coding": [
            {
              "system": "http://loinc.org",
              "code": "6690-2",
              "display": "WBC-1e91616a"
            }
          ]
        },
        "subject": {
          "reference": "urn:uuid:795a9058-89e2-434b-b535-7fb352be2f41"
        },
        "encounter": {
          "reference": "urn:uuid:a67b4f5d-df9a-43f7-95be-c8b0429e4cee"
        },
        "valueQuantity": {
          "value": 8500,
          "unit": "/uL"
        },
        "effectiveDateTime": "2026-02-25T10:30:00Z"
      },
      "request": {
        "method": "POST",
        "url": "Observation"
      }
    },
    {
      "fullUrl": "urn:uuid:9a3bb644-5d14-409f-9a7f-09ae316a85fb",
      "resource": {
        "resourceType": "Observation",
        "status": "final",
        "code": {
          "coding": [
            {
              "system": "http://loinc.org",
              "code": "39156-5",
              "display": "BMI-1e91616a"
            }
          ]
        },
        "subject": {
          "reference": "urn:uuid:15206435-20a1-42d8-a3be-90d50b36b7fa"
        },
        "encounter": {
          "reference": "urn:uuid:c60bba06-dce9-4365-a6a3-afa07e7a0045"
        },
        "valueQuantity": {
          "value": 22.1,
          "unit": "kg/m2"
        },
        "effectiveDateTime": "2025-06-01T11:30:00Z"
      },
      "request": {
        "method": "POST",
        "url": "Observation"
      }
    },
    {
      "fullUrl": "urn:uuid:c00175fc-7669-4576-a5b9-3de0376de9dc",
      "resource": {
        "resourceType": "Observation",
        "status": "final",
        "code": {
          "coding": [
            {
              "system": "http://loinc.org",
              "code": "8310-5",
              "display": "BodyTemp-1e91616a"
            }
          ]
        },
        "subject": {
          "reference": "urn:uuid:15206435-20a1-42d8-a3be-90d50b36b7fa"
        },
        "valueQuantity": {
          "value": 37.2,
          "unit": "Cel"
        },
        "effectiveDateTime": "2025-06-01T11:35:00Z"
      },
      "request": {
        "method": "POST",
        "url": "Observation"
      }
    },
    {
      "fullUrl": "urn:uuid:91fc4449-b5cd-43c6-89ee-fb3f4792d8ad",
      "resource": {
        "resourceType": "DiagnosticReport",
        "status": "final",
        "code": {
          "coding": [
            {
              "system": "http://loinc.org",
              "code": "58410-2",
              "display": "CBC-1e91616a"
            }
          ]
        },
        "subject": {
          "reference": "urn:uuid:831bfd02-a0e2-4f7d-a71b-2e6a2e2f028e"
        },
        "encounter": {
          "reference": "urn:uuid:be01aff7-ab76-4d31-bef2-55be21cc6593"
        },
        "result": [
          {
            "reference": "urn:uuid:e8bf0fef-c517-49f7-9996-2dedefefaa6b"
          },
          {
            "reference": "urn:uuid:afe5967b-1b5a-4373-bb0d-d8c764bc2ed5"
          }
        ],
        "effectiveDateTime": "2025-01-10T09:00:00Z",
        "issued": "2025-01-10T10:00:00Z"
      },
      "request": {
        "method": "POST",
        "url": "DiagnosticReport"
      }
    },
    {
      "fullUrl": "urn:uuid:ebb78b2e-ff98-4883-b327-c6240b0dd6d4",
      "resource": {
        "resourceType": "DiagnosticReport",
        "status": "final",
        "code": {
          "coding": [
            {
              "system": "http://loinc.org",
              "code": "24323-8",
              "display": "CMP-1e91616a"
            }
          ]
        },
        "subject": {
          "reference": "urn:uuid:831bfd02-a0e2-4f7d-a71b-2e6a2e2f028e"
        },
        "encounter": {
          "reference": "urn:uuid:299719d7-504f-4dc1-80d9-a1bb5846bf29"
        },
        "result": [
          {
            "reference": "urn:uuid:848d885a-e38f-4f85-93bc-3f0cf04aeea9"
          }
        ],
        "effectiveDateTime": "2025-02-01T11:00:00Z"
      },
      "request": {
        "method": "POST",
        "url": "DiagnosticReport"
      }
    },
    {
      "fullUrl": "urn:uuid:554b5842-6a0e-4aac-8774-c7b6708b9ff7",
      "resource": {
        "resourceType": "DiagnosticReport",
        "status": "final",
        "code": {
          "coding": [
            {
              "system": "http://loinc.org",
              "code": "2339-0",
              "display": "GlucoseReport-1e91616a"
            }
          ]
        },
        "subject": {
          "reference": "urn:uuid:d6ec4cff-4115-45b1-8a8d-30d71896fc8b"
        },
        "result": [
          {
            "reference": "urn:uuid:8805e64a-a65d-4091-8d5e-e4bfcc004a4a"
          }
        ],
        "effectiveDateTime": "2025-03-15T15:00:00Z"
      },
      "request": {
        "method": "POST",
        "url": "DiagnosticReport"
      }
    },
    {
      "fullUrl": "urn:uuid:e0702075-6012-430c-8ba7-db15252091c1",
      "resource": {
        "resourceType": "DiagnosticReport",
        "status": "preliminary",
        "code": {
          "coding": [
            {
              "system": "http://loinc.org",
              "code": "58410-2",
              "display": "CBC2-1e91616a"
            }
          ]
        },
        "subject": {
          "reference": "urn:uuid:795a9058-89e2-434b-b535-7fb352be2f41"
        },
        "result": [
          {
            "reference": "urn:uuid:2e4e4436-5f36-4a89-b4cf-b78eb2346aba"
          },
          {
            "reference": "urn:uuid:7b268bf8-64de-4eb2-ac3c-4e685238e3ee"
          }
        ],
        "effectiveDateTime": "2026-02-25T11:00:00Z"
      },
      "request": {
        "method": "POST",
        "url": "DiagnosticReport"
      }
    },
    {
      "fullUrl": "urn:uuid:edcb232a-2126-4d7b-aa56-e64d33079893",
      "resource": {
        "resourceType": "DiagnosticReport",
        "status": "final",
        "code": {
          "coding": [
            {
              "system": "http://loinc.org",
              "code": "55399-0",
              "display": "Vitals-1e91616a"
            }
          ]
        },
        "subject": {
          "reference": "urn:uuid:15206435-20a1-42d8-a3be-90d50b36b7fa"
        },
        "encounter": {
          "reference": "urn:uuid:c60bba06-dce9-4365-a6a3-afa07e7a0045"
        },
        "result": [
          {
            "reference": "urn:uuid:9a3bb644-5d14-409f-9a7f-09ae316a85fb"
          },
          {
            "reference": "urn:uuid:c00175fc-7669-4576-a5b9-3de0376de9dc"
          }
        ],
        "effectiveDateTime": "2025-06-01T12:00:00Z"
      },
      "request": {
        "method": "POST",
        "url": "DiagnosticReport"
      }
    },
    {
      "fullUrl": "urn:uuid:a2db7db0-9416-42de-92e6-3783766515f9",
      "resource": {
        "resourceType": "MedicationRequest",
        "status": "active",
        "intent": "order",
        "medicationReference": {
          "reference": "urn:uuid:76d3c0b2-cc00-4be9-86be-218c8605f643"
        },
        "subject": {
          "reference": "urn:uuid:831bfd02-a0e2-4f7d-a71b-2e6a2e2f028e"
        },
        "encounter": {
          "reference": "urn:uuid:be01aff7-ab76-4d31-bef2-55be21cc6593"
        },
        "requester": {
          "reference": "urn:uuid:d570e1b0-10a1-43ec-ac0e-8986b8fab616"
        },
        "authoredOn": "2025-01-10",
        "dosageInstruction": [
          {
            "text": "Take 500mg PRN-1e91616a",
            "timing": {
              "repeat": {
                "frequency": 3,
                "period": 1,
                "periodUnit": "d"
              }
            }
          }
        ]
      },
      "request": {
        "method": "POST",
        "url": "MedicationRequest"
      }
    },
    {
      "fullUrl": "urn:uuid:6fac90d7-44bf-45ad-bfc8-a745d5b340e1",
      "resource": {
        "resourceType": "MedicationRequest",
        "status": "active",
        "intent": "order",
        "medicationReference": {
          "reference": "urn:uuid:cda74543-58cd-465f-af52-d8053b13dfce"
        },
        "subject": {
          "reference": "urn:uuid:831bfd02-a0e2-4f7d-a71b-2e6a2e2f028e"
        },
        "requester": {
          "reference": "urn:uuid:d570e1b0-10a1-43ec-ac0e-8986b8fab616"
        },
        "authoredOn": "2025-02-01",
        "dosageInstruction": [
          {
            "text": "250mg TID-1e91616a"
          }
        ]
      },
      "request": {
        "method": "POST",
        "url": "MedicationRequest"
      }
    },
    {
      "fullUrl": "urn:uuid:ad6c9800-1f30-4ba9-9284-c9f72b3d055a",
      "resource": {
        "resourceType": "MedicationRequest",
        "status": "active",
        "intent": "order",
        "medicationReference": {
          "reference": "urn:uuid:c692f3c8-b5d4-4e05-8750-1c3adb8da457"
        },
        "subject": {
          "reference": "urn:uuid:d6ec4cff-4115-45b1-8a8d-30d71896fc8b"
        },
        "requester": {
          "reference": "urn:uuid:2782f2f8-b316-4a31-aabb-16a0dd0f94e1"
        },
        "authoredOn": "2025-03-15"
      },
      "request": {
        "method": "POST",
        "url": "MedicationRequest"
      }
    },
    {
      "fullUrl": "urn:uuid:1a9bfe2f-e680-46c5-a81a-3f30f5c79fa6",
      "resource": {
        "resourceType": "MedicationRequest",
        "status": "stopped",
        "intent": "order",
        "medicationReference": {
          "reference": "urn:uuid:8980e399-6bd2-4b90-b17c-93fec8853747"
        },
        "subject": {
          "reference": "urn:uuid:795a9058-89e2-434b-b535-7fb352be2f41"
        },
        "requester": {
          "reference": "urn:uuid:73cb0667-fea7-4d47-9591-12bc58d3da4c"
        },
        "authoredOn": "2025-04-01"
      },
      "request": {
        "method": "POST",
        "url": "MedicationRequest"
      }
    },
    {
      "fullUrl": "urn:uuid:de399ac9-2b26-4e55-9712-c240c2ecefcb",
      "resource": {
        "resourceType": "MedicationRequest",
        "status": "active",
        "intent": "plan",
        "medicationReference": {
          "reference": "urn:uuid:4926ef13-7a1d-4d5f-bbf7-e2f6b8c8290c"
        },
        "subject": {
          "reference": "urn:uuid:15206435-20a1-42d8-a3be-90d50b36b7fa"
        },
        "encounter": {
          "reference": "urn:uuid:c60bba06-dce9-4365-a6a3-afa07e7a0045"
        },
        "requester": {
          "reference": "urn:uuid:b8030ac2-33ed-4137-b448-97aae9a801b1"
        },
        "authoredOn": "2025-06-01"
      },
      "request": {
        "method": "POST",
        "url": "MedicationRequest"
      }
    },
    {
      "fullUrl": "urn:uuid:76d3c0b2-cc00-4be9-86be-218c8605f643",
      "resource": {
        "resourceType": "Medication",
        "code": {
          "coding": [
            {
              "system": "http://www.nlm.nih.gov/research/umls/rxnorm",
              "code": "1049502",
              "display": "Acetaminophen-1e91616a"
            }
          ]
        },
        "status": "active"
      },
      "request": {
        "method": "POST",
        "url": "Medication"
      }
    },
    {
      "fullUrl": "urn:uuid:cda74543-58cd-465f-af52-d8053b13dfce",
      "resource": {
        "resourceType": "Medication",
        "code": {
          "coding": [
            {
              "system": "http://www.nlm.nih.gov/research/umls/rxnorm",
              "code": "197361",
              "display": "Amoxicillin-1e91616a"
            }
          ]
        },
        "status": "active",
        "manufacturer": {
          "reference": "urn:uuid:2b44d831-5d5a-485e-acee-fbcb547d1e79"
        }
      },
      "request": {
        "method": "POST",
        "url": "Medication"
      }
    },
    {
      "fullUrl": "urn:uuid:c692f3c8-b5d4-4e05-8750-1c3adb8da457",
      "resource": {
        "resourceType": "Medication",
        "code": {
          "coding": [
            {
              "system": "http://www.nlm.nih.gov/research/umls/rxnorm",
              "code": "310965",
              "display": "Lisinopril-1e91616a"
            }
          ]
        },
        "status": "active"
      },
      "request": {
        "method": "POST",
        "url": "Medication"
      }
    },
    {
      "fullUrl": "urn:uuid:8980e399-6bd2-4b90-b17c-93fec8853747",
      "resource": {
        "resourceType": "Medication",
        "code": {
          "coding": [
            {
              "system": "http://www.nlm.nih.gov/research/umls/rxnorm",
              "code": "860975",
              "display": "Metformin-1e91616a"
            }
          ]
        },
        "status": "active"
      },
      "request": {
        "method": "POST",
        "url": "Medication"
      }
    },
    {
      "fullUrl": "urn:uuid:4926ef13-7a1d-4d5f-bbf7-e2f6b8c8290c",
      "resource": {
        "resourceType": "Medication",
        "code": {
          "coding": [
            {
              "system": "http://www.nlm.nih.gov/research/umls/rxnorm",
              "code": "198440",
              "display": "Omeprazole-1e91616a"
            }
          ]
        },
        "status": "inactive"
      },
      "request": {
        "method": "POST",
        "url": "Medication"
      }
    },
    {
      "fullUrl": "urn:uuid:752776a3-10f0-43bc-82cb-13c412e9e7dd",
      "resource": {
        "resourceType": "AllergyIntolerance",
        "clinicalStatus": {
          "coding": [
            {
              "system": "http://terminology.hl7.org/CodeSystem/allergyintolerance-clinical",
              "code": "active"
            }
          ]
        },
        "verificationStatus": {
          "coding": [
            {
              "system": "http://terminology.hl7.org/CodeSystem/allergyintolerance-verification",
              "code": "confirmed"
            }
          ]
        },
        "type": "allergy",
        "category": [
          "medication"
        ],
        "code": {
          "coding": [
            {
              "system": "http://snomed.info/sct",
              "code": "387458008",
              "display": "Aspirin-1e91616a"
            }
          ]
        },
        "patient": {
          "reference": "urn:uuid:831bfd02-a0e2-4f7d-a71b-2e6a2e2f028e"
        },
        "onsetDateTime": "2015-01-01",
        "reaction": [
          {
            "manifestation": [
              {
                "coding": [
                  {
                    "system": "http://snomed.info/sct",
                    "code": "271807003",
                    "display": "Rash"
                  }
                ]
              }
            ],
            "severity": "moderate"
          }
        ]
      },
      "request": {
        "method": "POST",
        "url": "AllergyIntolerance"
      }
    },
    {
      "fullUrl": "urn:uuid:700feeb3-502e-4086-a665-73fc1fc97a3d",
      "resource": {
        "resourceType": "AllergyIntolerance",
        "clinicalStatus": {
          "coding": [
            {
              "system": "http://terminology.hl7.org/CodeSystem/allergyintolerance-clinical",
              "code": "active"
            }
          ]
        },
        "type": "allergy",
        "category": [
          "food"
        ],
        "code": {
          "coding": [
            {
              "system": "http://snomed.info/sct",
              "code": "91935009",
              "display": "Peanut-1e91616a"
            }
          ]
        },
        "patient": {
          "reference": "urn:uuid:831bfd02-a0e2-4f7d-a71b-2e6a2e2f028e"
        }
      },
      "request": {
        "method": "POST",
        "url": "AllergyIntolerance"
      }
    },
    {
      "fullUrl": "urn:uuid:29d088ce-2226-4359-887f-0e7790724f94",
      "resource": {
        "resourceType": "AllergyIntolerance",
        "clinicalStatus": {
          "coding": [
            {
              "system": "http://terminology.hl7.org/CodeSystem/allergyintolerance-clinical",
              "code": "active"
            }
          ]
        },
        "type": "intolerance",
        "category": [
          "medication"
        ],
        "code": {
          "coding": [
            {
              "system": "http://snomed.info/sct",
              "code": "372687004",
              "display": "Penicillin-1e91616a"
            }
          ]
        },
        "patient": {
          "reference": "urn:uuid:d6ec4cff-4115-45b1-8a8d-30d71896fc8b"
        }
      },
      "request": {
        "method": "POST",
        "url": "AllergyIntolerance"
      }
    },
    {
      "fullUrl": "urn:uuid:1474d37e-577f-4bce-9027-1383b5c10845",
      "resource": {
        "resourceType": "AllergyIntolerance",
        "clinicalStatus": {
          "coding": [
            {
              "system": "http://terminology.hl7.org/CodeSystem/allergyintolerance-clinical",
              "code": "resolved"
            }
          ]
        },
        "code": {
          "coding": [
            {
              "system": "http://snomed.info/sct",
              "code": "264295007",
              "display": "Latex-1e91616a"
            }
          ]
        },
        "patient": {
          "reference": "urn:uuid:795a9058-89e2-434b-b535-7fb352be2f41"
        }
      },
      "request": {
        "method": "POST",
        "url": "AllergyIntolerance"
      }
    },
    {
      "fullUrl": "urn:uuid:ef83676c-a1c0-4ecb-8ddf-5fddcd514321",
      "resource": {
        "resourceType": "AllergyIntolerance",
        "clinicalStatus": {
          "coding": [
            {
              "system": "http://terminology.hl7.org/CodeSystem/allergyintolerance-clinical",
              "code": "active"
            }
          ]
        },
        "type": "allergy",
        "category": [
          "environment"
        ],
        "code": {
          "coding": [
            {
              "system": "http://snomed.info/sct",
              "code": "256259004",
              "display": "Pollen-1e91616a"
            }
          ]
        },
        "patient": {
          "reference": "urn:uuid:15206435-20a1-42d8-a3be-90d50b36b7fa"
        }
      },
      "request": {
        "method": "POST",
        "url": "AllergyIntolerance"
      }
    },
    {
      "fullUrl": "urn:uuid:f711d0ea-8a69-479f-9c84-2cd038fcde97",
      "resource": {
        "resourceType": "Procedure",
        "status": "completed",
        "code": {
          "coding": [
            {
              "system": "http://snomed.info/sct",
              "code": "80146002",
              "display": "Appendectomy-1e91616a"
            }
          ]
        },
        "subject": {
          "reference": "urn:uuid:831bfd02-a0e2-4f7d-a71b-2e6a2e2f028e"
        },
        "encounter": {
          "reference": "urn:uuid:299719d7-504f-4dc1-80d9-a1bb5846bf29"
        },
        "performedDateTime": "2025-02-03T14:00:00Z",
        "performer": [
          {
            "actor": {
              "reference": "urn:uuid:73cb0667-fea7-4d47-9591-12bc58d3da4c"
            }
          }
        ]
      },
      "request": {
        "method": "POST",
        "url": "Procedure"
      }
    },
    {
      "fullUrl": "urn:uuid:e3f7011f-1b25-446b-a0c7-1ba0d0096f8b",
      "resource": {
        "resourceType": "Procedure",
        "status": "completed",
        "code": {
          "coding": [
            {
              "system": "http://snomed.info/sct",
              "code": "232717009",
              "display": "Coronography-1e91616a"
            }
          ]
        },
        "subject": {
          "reference": "urn:uuid:831bfd02-a0e2-4f7d-a71b-2e6a2e2f028e"
        },
        "performedPeriod": {
          "start": "2025-02-04T08:00:00Z",
          "end": "2025-02-04T10:00:00Z"
        }
      },
      "request": {
        "method": "POST",
        "url": "Procedure"
      }
    },
    {
      "fullUrl": "urn:uuid:416734bc-a42f-48c8-ac29-56d4c3a40d05",
      "resource": {
        "resourceType": "Procedure",
        "status": "completed",
        "code": {
          "coding": [
            {
              "system": "http://snomed.info/sct",
              "code": "36969009",
              "display": "BloodDraw-1e91616a"
            }
          ]
        },
        "subject": {
          "reference": "urn:uuid:d6ec4cff-4115-45b1-8a8d-30d71896fc8b"
        },
        "encounter": {
          "reference": "urn:uuid:12d90fe2-f2e8-4b22-a7df-5f27168971a2"
        },
        "performedDateTime": "2025-03-15T14:15:00Z"
      },
      "request": {
        "method": "POST",
        "url": "Procedure"
      }
    },
    {
      "fullUrl": "urn:uuid:aa76a0a1-3390-4878-9115-3c5d9ec456a2",
      "resource": {
        "resourceType": "Procedure",
        "status": "in-progress",
        "code": {
          "coding": [
            {
              "system": "http://snomed.info/sct",
              "code": "418891003",
              "display": "Dressing-1e91616a"
            }
          ]
        },
        "subject": {
          "reference": "urn:uuid:795a9058-89e2-434b-b535-7fb352be2f41"
        },
        "encounter": {
          "reference": "urn:uuid:a67b4f5d-df9a-43f7-95be-c8b0429e4cee"
        },
        "performedDateTime": "2026-02-25T11:00:00Z"
      },
      "request": {
        "method": "POST",
        "url": "Procedure"
      }
    },
    {
      "fullUrl": "urn:uuid:f16b78c3-c01c-4d9c-a598-e901c2ee5af1",
      "resource": {
        "resourceType": "Procedure",
        "status": "completed",
        "code": {
          "coding": [
            {
              "system": "http://snomed.info/sct",
              "code": "274025005",
              "display": "EKG-1e91616a"
            }
          ]
        },
        "subject": {
          "reference": "urn:uuid:15206435-20a1-42d8-a3be-90d50b36b7fa"
        },
        "encounter": {
          "reference": "urn:uuid:c60bba06-dce9-4365-a6a3-afa07e7a0045"
        },
        "performedDateTime": "2025-06-01T11:45:00Z"
      },
      "request": {
        "method": "POST",
        "url": "Procedure"
      }
    },
    {
      "fullUrl": "urn:uuid:0eaf8c7a-2b0b-4dc9-b97f-ccd28c6d202f",
      "resource": {
        "resourceType": "ServiceRequest",
        "status": "active",
        "intent": "order",
        "code": {
          "coding": [
            {
              "system": "http://snomed.info/sct",
              "code": "26604007",
              "display": "FBC-1e91616a"
            }
          ]
        },
        "subject": {
          "reference": "urn:uuid:831bfd02-a0e2-4f7d-a71b-2e6a2e2f028e"
        },
        "encounter": {
          "reference": "urn:uuid:be01aff7-ab76-4d31-bef2-55be21cc6593"
        },
        "requester": {
          "reference": "urn:uuid:d570e1b0-10a1-43ec-ac0e-8986b8fab616"
        },
        "authoredOn": "2025-01-10"
      },
      "request": {
        "method": "POST",
        "url": "ServiceRequest"
      }
    },
    {
      "fullUrl": "urn:uuid:ea239530-46c7-4a34-a8b4-140d80209ad9",
      "resource": {
        "resourceType": "ServiceRequest",
        "status": "completed",
        "intent": "order",
        "code": {
          "coding": [
            {
              "system": "http://snomed.info/sct",
              "code": "77477000",
              "display": "CTScan-1e91616a"
            }
          ]
        },
        "subject": {
          "reference": "urn:uuid:831bfd02-a0e2-4f7d-a71b-2e6a2e2f028e"
        },
        "encounter": {
          "reference": "urn:uuid:299719d7-504f-4dc1-80d9-a1bb5846bf29"
        },
        "authoredOn": "2025-02-01"
      },
      "request": {
        "method": "POST",
        "url": "ServiceRequest"
      }
    },
    {
      "fullUrl": "urn:uuid:8f707cd1-f39d-49bd-bb6e-aec0c9b6728b",
      "resource": {
        "resourceType": "ServiceRequest",
        "status": "active",
        "intent": "order",
        "code": {
          "coding": [
            {
              "system": "http://snomed.info/sct",
              "code": "104001",
              "display": "Excision-1e91616a"
            }
          ]
        },
        "subject": {
          "reference": "urn:uuid:d6ec4cff-4115-45b1-8a8d-30d71896fc8b"
        },
        "authoredOn": "2025-03-15"
      },
      "request": {
        "method": "POST",
        "url": "ServiceRequest"
      }
    },
    {
      "fullUrl": "urn:uuid:8480c331-8f2d-4689-9ab5-b7729952c87c",
      "resource": {
        "resourceType": "ServiceRequest",
        "status": "active",
        "intent": "order",
        "code": {
          "coding": [
            {
              "system": "http://snomed.info/sct",
              "code": "252275004",
              "display": "Imaging-1e91616a"
            }
          ]
        },
        "subject": {
          "reference": "urn:uuid:795a9058-89e2-434b-b535-7fb352be2f41"
        },
        "encounter": {
          "reference": "urn:uuid:a67b4f5d-df9a-43f7-95be-c8b0429e4cee"
        },
        "authoredOn": "2026-02-25"
      },
      "request": {
        "method": "POST",
        "url": "ServiceRequest"
      }
    },
    {
      "fullUrl": "urn:uuid:20f52e85-aed5-42f8-b7bf-7efe5e3c5e7b",
      "resource": {
        "resourceType": "ServiceRequest",
        "status": "active",
        "intent": "plan",
        "code": {
          "coding": [
            {
              "system": "http://snomed.info/sct",
              "code": "409063005",
              "display": "Counseling-1e91616a"
            }
          ]
        },
        "subject": {
          "reference": "urn:uuid:15206435-20a1-42d8-a3be-90d50b36b7fa"
        },
        "authoredOn": "2025-06-01"
      },
      "request": {
        "method": "POST",
        "url": "ServiceRequest"
      }
    },
    {
      "fullUrl": "urn:uuid:0812cb36-7bac-4d30-9eaf-aa0abfc9524c",
      "resource": {
        "resourceType": "CarePlan",
        "status": "active",
        "intent": "plan",
        "title": "DM Management-1e91616a",
        "subject": {
          "reference": "urn:uuid:831bfd02-a0e2-4f7d-a71b-2e6a2e2f028e"
        },
        "encounter": {
          "reference": "urn:uuid:be01aff7-ab76-4d31-bef2-55be21cc6593"
        },
        "addresses": [
          {
            "reference": "urn:uuid:43b350f7-e1b9-4ba9-a767-1820fd8793d9"
          }
        ],
        "category": [
          {
            "coding": [
              {
                "system": "http://hl7.org/fhir/us/core/CodeSystem/careplan-category",
                "code": "assess-plan"
              }
            ]
          }
        ]
      },
      "request": {
        "method": "POST",
        "url": "CarePlan"
      }
    },
    {
      "fullUrl": "urn:uuid:0eb59ae0-018d-4c1e-8fd2-c09017382656",
      "resource": {
        "resourceType": "CarePlan",
        "status": "active",
        "intent": "plan",
        "title": "HTN Management-1e91616a",
        "subject": {
          "reference": "urn:uuid:831bfd02-a0e2-4f7d-a71b-2e6a2e2f028e"
        },
        "addresses": [
          {
            "reference": "urn:uuid:763f4ec4-4660-44bb-94e3-f19528e10e13"
          }
        ]
      },
      "request": {
        "method": "POST",
        "url": "CarePlan"
      }
    },
    {
      "fullUrl": "urn:uuid:75d67d41-3d82-455b-9e4a-4e03f6f91c41",
      "resource": {
        "resourceType": "CarePlan",
        "status": "completed",
        "intent": "plan",
        "title": "Pneumonia Recovery-1e91616a",
        "subject": {
          "reference": "urn:uuid:d6ec4cff-4115-45b1-8a8d-30d71896fc8b"
        },
        "addresses": [
          {
            "reference": "urn:uuid:8e25921e-fe4c-4c2f-91f8-307d839dae95"
          }
        ]
      },
      "request": {
        "method": "POST",
        "url": "CarePlan"
      }
    },
    {
      "fullUrl": "urn:uuid:94b20ee8-ab0c-4de8-b8ec-41ecf61d8d91",
      "resource": {
        "resourceType": "CarePlan",
        "status": "active",
        "intent": "plan",
        "title": "DM1 Care-1e91616a",
        "subject": {
          "reference": "urn:uuid:795a9058-89e2-434b-b535-7fb352be2f41"
        },
        "addresses": [
          {
            "reference": "urn:uuid:33fb59f2-3854-4a47-a671-a90f95e708c0"
          }
        ]
      },
      "request": {
        "method": "POST",
        "url": "CarePlan"
      }
    },
    {
      "fullUrl": "urn:uuid:82efbddc-dff6-4717-aca5-a1003d1bd8a2",
      "resource": {
        "resourceType": "CarePlan",
        "status": "active",
        "intent": "plan",
        "title": "Asthma Action-1e91616a",
        "subject": {
          "reference": "urn:uuid:15206435-20a1-42d8-a3be-90d50b36b7fa"
        },
        "encounter": {
          "reference": "urn:uuid:c60bba06-dce9-4365-a6a3-afa07e7a0045"
        },
        "addresses": [
          {
            "reference": "urn:uuid:03bcb8d5-86d1-48ed-94dc-20e94ec2d912"
          }
        ]
      },
      "request": {
        "method": "POST",
        "url": "CarePlan"
      }
    },
    {
      "fullUrl": "urn:uuid:6a3838c7-109a-4e56-be53-eb89ac13596f",
      "resource": {
        "resourceType": "Immunization",
        "status": "completed",
        "vaccineCode": {
          "coding": [
            {
              "system": "http://hl7.org/fhir/sid/cvx",
              "code": "208",
              "display": "COVID19-1e91616a"
            }
          ]
        },
        "patient": {
          "reference": "urn:uuid:831bfd02-a0e2-4f7d-a71b-2e6a2e2f028e"
        },
        "occurrenceDateTime": "2025-01-15T09:00:00Z",
        "encounter": {
          "reference": "urn:uuid:be01aff7-ab76-4d31-bef2-55be21cc6593"
        }
      },
      "request": {
        "method": "POST",
        "url": "Immunization"
      }
    },
    {
      "fullUrl": "urn:uuid:049b867d-7b4c-44bc-a1e6-cd30864b5c14",
      "resource": {
        "resourceType": "Immunization",
        "status": "completed",
        "vaccineCode": {
          "coding": [
            {
              "system": "http://hl7.org/fhir/sid/cvx",
              "code": "141",
              "display": "Influenza-1e91616a"
            }
          ]
        },
        "patient": {
          "reference": "urn:uuid:831bfd02-a0e2-4f7d-a71b-2e6a2e2f028e"
        },
        "occurrenceDateTime": "2025-10-01"
      },
      "request": {
        "method": "POST",
        "url": "Immunization"
      }
    },
    {
      "fullUrl": "urn:uuid:bf49a8af-7503-4c49-a164-7546ab512f2f",
      "resource": {
        "resourceType": "Immunization",
        "status": "completed",
        "vaccineCode": {
          "coding": [
            {
              "system": "http://hl7.org/fhir/sid/cvx",
              "code": "08",
              "display": "HepB-1e91616a"
            }
          ]
        },
        "patient": {
          "reference": "urn:uuid:d6ec4cff-4115-45b1-8a8d-30d71896fc8b"
        },
        "occurrenceDateTime": "2025-04-01"
      },
      "request": {
        "method": "POST",
        "url": "Immunization"
      }
    },
    {
      "fullUrl": "urn:uuid:61fac58c-1f2e-4ff9-881b-900b2c38e913",
      "resource": {
        "resourceType": "Immunization",
        "status": "not-done",
        "vaccineCode": {
          "coding": [
            {
              "system": "http://hl7.org/fhir/sid/cvx",
              "code": "03",
              "display": "MMR-1e91616a"
            }
          ]
        },
        "patient": {
          "reference": "urn:uuid:910115c9-a53d-4620-a006-c10d91638b56"
        },
        "occurrenceDateTime": "2025-05-01",
        "statusReason": {
          "coding": [
            {
              "system": "http://terminology.hl7.org/CodeSystem/v3-ActReason",
              "code": "MEDPREC"
            }
          ]
        }
      },
      "request": {
        "method": "POST",
        "url": "Immunization"
      }
    },
    {
      "fullUrl": "urn:uuid:294b60c5-de3f-4ea7-b048-c06f757d2c08",
      "resource": {
        "resourceType": "Immunization",
        "status": "completed",
        "vaccineCode": {
          "coding": [
            {
              "system": "http://hl7.org/fhir/sid/cvx",
              "code": "113",
              "display": "Tdap-1e91616a"
            }
          ]
        },
        "patient": {
          "reference": "urn:uuid:15206435-20a1-42d8-a3be-90d50b36b7fa"
        },
        "occurrenceDateTime": "2025-06-01",
        "encounter": {
          "reference": "urn:uuid:c60bba06-dce9-4365-a6a3-afa07e7a0045"
        }
      },
      "request": {
        "method": "POST",
        "url": "Immunization"
      }
    }
  ]
}