{
  "resourceType": "Bundle",
  "type": "transaction",
  "entry": [
    {
      "fullUrl": "urn:uuid:77e26246-3d12-4607-9e74-105963753c01",
      "resource": {
        "resourceType": "Organization",
        "name": "Central Hospital-c1b0ddae",
        "identifier": [
          {
            "system": "http://example.com/org",
            "value": "ORG-001-c1b0ddae"
          }
        ],
        "type": [
          {
            "coding": [
              {
                "system": "http://terminology.hl7.org/CodeSystem/organization-type",
                "code": "prov"
              }
            ]
          }
        ],
        "telecom": [
          {
            "system": "phone",
            "value": "555-0100"
          }
        ],
        "address": [
          {
            "line": [
              "100 Main St"
            ],
            "city": "Springfield",
            "state": "IL",
            "postalCode": "62701",
            "country": "US"
          }
        ]
      },
      "request": {
        "method": "POST",
        "url": "Organization"
      }
    },
    {
      "fullUrl": "urn:uuid:d92dd74b-7671-487a-8edc-b733098de6b1",
      "resource": {
        "resourceType": "Organization",
        "name": "East Wing Lab-c1b0ddae",
        "identifier": [
          {
            "system": "http://example.com/org",
            "value": "ORG-002-c1b0ddae"
          }
        ],
        "type": [
          {
            "coding": [
              {
                "system": "http://terminology.hl7.org/CodeSystem/organization-type",
                "code": "dept"
              }
            ]
          }
        ]
      },
      "request": {
        "method": "POST",
        "url": "Organization"
      }
    },
    {
      "fullUrl": "urn:uuid:ec836858-4c90-4a1d-9ed0-1fa64157505f",
      "resource": {
        "resourceType": "Organization",
        "name": "Pharmacy Services-c1b0ddae",
        "identifier": [
          {
            "system": "http://example.com/org",
            "value": "ORG-003-c1b0ddae"
          }
        ]
      },
      "request": {
        "method": "POST",
        "url": "Organization"
      }
    },
    {
      "fullUrl": "urn:uuid:5064ee0a-d581-438d-8523-d6987c07e533",
      "resource": {
        "resourceType": "Organization",
        "name": "Insurance Corp-c1b0ddae",
        "identifier": [
          {
            "system": "http://example.com/org",
            "value": "ORG-004-c1b0ddae"
          }
        ],
        "type": [
          {
            "coding": [
              {
                "system": "http://terminology.hl7.org/CodeSystem/organization-type",
                "code": "ins"
              }
            ]
          }
        ]
      },
      "request": {
        "method": "POST",
        "url": "Organization"
      }
    },
    {
      "fullUrl": "urn:uuid:b210834f-9052-4c48-b51e-169148becd82",
      "resource": {
        "resourceType": "Organization",
        "name": "Specialty Clinic-c1b0ddae",
        "identifier": [
          {
            "system": "http://example.com/org",
            "value": "ORG-005-c1b0ddae"
          }
        ],
        "address": [
          {
            "line": [
              "200 Oak Ave"
            ],
            "city": "Shelbyville",
            "state": "IL",
            "postalCode": "62702",
            "country": "US"
          }
        ]
      },
      "request": {
        "method": "POST",
        "url": "Organization"
      }
    },
    {
      "fullUrl": "urn:uuid:42fbab04-1dad-4113-85ee-a0f4c532f553",
      "resource": {
        "resourceType": "Practitioner",
        "name": [
          {
            "family": "Smith-c1b0ddae",
            "given": [
              "John",
              "A"
            ],
            "prefix": [
              "Dr."
            ]
          }
        ],
        "identifier": [
          {
            "system": "http://example.com/npi",
            "value": "NPI-001-c1b0ddae"
          }
        ],
        "gender": "male",
        "birthDate": "1975-03-15",
        "telecom": [
          {
            "system": "email",
            "value": "john.smith-c1b0ddae@hospital.com"
          }
        ],
        "address": [
          {
            "line": [
              "100 Main St"
            ],
            "city": "Springfield",
            "state": "IL",
            "postalCode": "62701",
            "country": "US"
          }
        ]
      },
      "request": {
        "method": "POST",
        "url": "Practitioner"
      }
    },
    {
      "fullUrl": "urn:uuid:74ae901e-38ad-4e16-94ea-89348aca9785",
      "resource": {
        "resourceType": "Practitioner",
        "name": [
          {
            "family": "Johnson-c1b0ddae",
            "given": [
              "Emily"
            ]
          }
        ],
        "identifier": [
          {
            "system": "http://example.com/npi",
            "value": "NPI-002-c1b0ddae"
          }
        ],
        "gender": "female"
      },
      "request": {
        "method": "POST",
        "url": "Practitioner"
      }
    },
    {
      "fullUrl": "urn:uuid:94c10698-41a6-4a93-8d12-da4bd1dbfff9",
      "resource": {
        "resourceType": "Practitioner",
        "name": [
          {
            "family": "Williams-c1b0ddae",
            "given": [
              "Robert"
            ]
          }
        ],
        "identifier": [
          {
            "system": "http://example.com/npi",
            "value": "NPI-003-c1b0ddae"
          }
        ],
        "gender": "male"
      },
      "request": {
        "method": "POST",
        "url": "Practitioner"
      }
    },
    {
      "fullUrl": "urn:uuid:f59ac67e-5d2e-4895-82fa-de60e0772ec9",
      "resource": {
        "resourceType": "Practitioner",
        "name": [
          {
            "family": "Brown-c1b0ddae",
            "given": [
              "Sarah"
            ]
          }
        ],
        "identifier": [
          {
            "system": "http://example.com/npi",
            "value": "NPI-004-c1b0ddae"
          }
        ],
        "gender": "female"
      },
      "request": {
        "method": "POST",
        "url": "Practitioner"
      }
    },
    {
      "fullUrl": "urn:uuid:6dc376dd-9f9a-436d-936e-548c6e7d41e1",
      "resource": {
        "resourceType": "Practitioner",
        "name": [
          {
            "family": "Davis-c1b0ddae",
            "given": [
              "Michael",
              "J"
            ]
          }
        ],
        "identifier": [
          {
            "system": "http://example.com/npi",
            "value": "NPI-005-c1b0ddae"
          }
        ],
        "gender": "male",
        "telecom": [
          {
            "system": "phone",
            "value": "555-0200"
          },
          {
            "system": "email",
            "value": "michael.davis-c1b0ddae@hospital.com"
          }
        ]
      },
      "request": {
        "method": "POST",
        "url": "Practitioner"
      }
    },
    {
      "fullUrl": "urn:uuid:09edfd6c-3434-44e8-8d33-492ac66a6c09",
      "resource": {
        "resourceType": "PractitionerRole",
        "practitioner": {
          "reference": "urn:uuid:42fbab04-1dad-4113-85ee-a0f4c532f553"
        },
        "organization": {
          "reference": "urn:uuid:77e26246-3d12-4607-9e74-105963753c01"
        },
        "code": [
          {
            "coding": [
              {
                "system": "http://snomed.info/sct",
                "code": "59058001",
                "display": "GP-c1b0ddae"
              }
            ]
          }
        ],
        "active": true
      },
      "request": {
        "method": "POST",
        "url": "PractitionerRole"
      }
    },
    {
      "fullUrl": "urn:uuid:4cf54c0c-171f-4d53-9d70-6f83cae7e3f3",
      "resource": {
        "resourceType": "PractitionerRole",
        "practitioner": {
          "reference": "urn:uuid:74ae901e-38ad-4e16-94ea-89348aca9785"
        },
        "organization": {
          "reference": "urn:uuid:d92dd74b-7671-487a-8edc-b733098de6b1"
        },
        "code": [
          {
            "coding": [
              {
                "system": "http://snomed.info/sct",
                "code": "61246008",
                "display": "Lab-c1b0ddae"
              }
            ]
          }
        ]
      },
      "request": {
        "method": "POST",
        "url": "PractitionerRole"
      }
    },
    {
      "fullUrl": "urn:uuid:7f9d693e-3523-4b50-92c2-e2cd8b82a39d",
      "resource": {
        "resourceType": "PractitionerRole",
        "practitioner": {
          "reference": "urn:uuid:94c10698-41a6-4a93-8d12-da4bd1dbfff9"
        },
        "organization": {
          "reference": "urn:uuid:77e26246-3d12-4607-9e74-105963753c01"
        },
        "code": [
          {
            "coding": [
              {
                "system": "http://snomed.info/sct",
                "code": "304292004",
                "display": "Surgeon-c1b0ddae"
              }
            ]
          }
        ]
      },
      "request": {
        "method": "POST",
        "url": "PractitionerRole"
      }
    },
    {
      "fullUrl": "urn:uuid:4eb4353d-03f4-49d8-b4f6-ff4f9edde53a",
      "resource": {
        "resourceType": "PractitionerRole",
        "practitioner": {
          "reference": "urn:uuid:f59ac67e-5d2e-4895-82fa-de60e0772ec9"
        },
        "organization": {
          "reference": "urn:uuid:ec836858-4c90-4a1d-9ed0-1fa64157505f"
        },
        "code": [
          {
            "coding": [
              {
                "system": "http://snomed.info/sct",
                "code": "46255001",
                "display": "Pharmacist-c1b0ddae"
              }
            ]
          }
        ]
      },
      "request": {
        "method": "POST",
        "url": "PractitionerRole"
      }
    },
    {
      "fullUrl": "urn:uuid:2ee4c18c-ff94-4f92-8f0b-0f826cfb575c",
      "resource": {
        "resourceType": "PractitionerRole",
        "practitioner": {
          "reference": "urn:uuid:6dc376dd-9f9a-436d-936e-548c6e7d41e1"
        },
        "organization": {
          "reference": "urn:uuid:b210834f-9052-4c48-b51e-169148becd82"
        },
        "code": [
          {
            "coding": [
              {
                "system": "http://snomed.info/sct",
                "code": "309343006",
                "display": "Specialist-c1b0ddae"
              }
            ]
          }
        ]
      },
      "request": {
        "method": "POST",
        "url": "PractitionerRole"
      }
    },
    {
      "fullUrl": "urn:uuid:2b3ca883-8de7-4a48-9aa3-383c6c3c78ad",
      "resource": {
        "resourceType": "Patient",
        "active": true,
        "gender": "male",
        "birthDate": "1985-06-15",
        "name": [
          {
            "use": "official",
            "family": "Doe-c1b0ddae",
            "given": [
              "John",
              "Michael"
            ]
          },
          {
            "use": "nickname",
            "given": [
              "Johnny"
            ]
          }
        ],
        "identifier": [
          {
            "system": "http://example.com/mrn",
            "value": "MRN-001-c1b0ddae"
          },
          {
            "system": "http://example.com/ssn",
            "value": "SSN-001-c1b0ddae"
          }
        ],
        "telecom": [
          {
            "system": "phone",
            "value": "555-1001",
            "use": "home"
          },
          {
            "system": "email",
            "value": "john.doe-c1b0ddae@example.com",
            "use": "work"
          }
        ],
        "address": [
          {
            "use": "home",
            "line": [
              "123 Elm St",
              "Apt 4B"
            ],
            "city": "Springfield",
            "state": "IL",
            "postalCode": "62701",
            "country": "US"
          }
        ],
        "managingOrganization": {
          "reference": "urn:uuid:77e26246-3d12-4607-9e74-105963753c01"
        },
        "generalPractitioner": [
          {
            "reference": "urn:uuid:42fbab04-1dad-4113-85ee-a0f4c532f553"
          }
        ],
        "meta": {
          "tag": [
            {
              "system": "http://example.com/tags",
              "code": "vip-c1b0ddae"
            }
          ]
        },
        "maritalStatus": {
          "coding": [
            {
              "system": "http://terminology.hl7.org/CodeSystem/v3-MaritalStatus",
              "code": "M",
              "display": "Married"
            }
          ]
        },
        "communication": [
          {
            "language": {
              "coding": [
                {
                  "system": "urn:ietf:bcp:47",
                  "code": "en"
                }
              ]
            }
          }
        ]
      },
      "request": {
        "method": "POST",
        "url": "Patient"
      }
    },
    {
      "fullUrl": "urn:uuid:e0c3bf93-9e1b-4dfa-8292-745428a05849",
      "resource": {
        "resourceType": "Patient",
        "active": true,
        "gender": "female",
        "birthDate": "1990-11-22",
        "name": [
          {
            "use": "official",
            "family": "Smith-c1b0ddae",
            "given": [
              "Jane",
              "Elizabeth"
            ]
          }
        ],
        "identifier": [
          {
            "system": "http://example.com/mrn",
            "value": "MRN-002-c1b0ddae"
          }
        ],
        "telecom": [
          {
            "system": "phone",
            "value": "555-1002"
          }
        ],
        "address": [
          {
            "use": "home",
            "line": [
              "456 Oak Ave"
            ],
            "city": "Chicago",
            "state": "IL",
            "postalCode": "60601",
            "country": "US"
          }
        ],
        "managingOrganization": {
          "reference": "urn:uuid:77e26246-3d12-4607-9e74-105963753c01"
        }
      },
      "request": {
        "method": "POST",
        "url": "Patient"
      }
    },
    {
      "fullUrl": "urn:uuid:a2cb3881-ca7e-4286-a5d4-9b57654d4603",
      "resource": {
        "resourceType": "Patient",
        "active": true,
        "gender": "male",
        "birthDate": "1978-01-30",
        "name": [
          {
            "use": "official",
            "family": "Williams-c1b0ddae",
            "given": [
              "Robert"
            ]
          }
        ],
        "identifier": [
          {
            "system": "http://example.com/mrn",
            "value": "MRN-003-c1b0ddae"
          }
        ],
        "address": [
          {
            "line": [
              "789 Pine Rd"
            ],
            "city": "Shelbyville",
            "state": "IL",
            "postalCode": "62702",
            "country": "US"
          },
          {
            "use": "work",
            "line": [
              "100 Main St"
            ],
            "city": "Springfield",
            "state": "IL"
          }
        ],
        "generalPractitioner": [
          {
            "reference": "urn:uuid:94c10698-41a6-4a93-8d12-da4bd1dbfff9"
          }
        ],
        "meta": {
          "tag": [
            {
              "system": "http://example.com/tags",
              "code": "urgent-c1b0ddae"
            },
            {
              "system": "http://example.com/tags",
              "code": "flagged-c1b0ddae"
            }
          ],
          "security": [
            {
              "system": "http://terminology.hl7.org/CodeSystem/v3-Confidentiality",
              "code": "R"
            }
          ]
        }
      },
      "request": {
        "method": "POST",
        "url": "Patient"
      }
    },
    {
      "fullUrl": "urn:uuid:0cc822bf-c32e-4290-9dac-601a14c54895",
      "resource": {
        "resourceType": "Patient",
        "active": false,
        "gender": "female",
        "birthDate": "2005-08-10",
        "name": [
          {
            "use": "official",
            "family": "Davis-c1b0ddae",
            "given": [
              "Alice"
            ]
          }
        ],
        "identifier": [
          {
            "system": "http://example.com/mrn",
            "value": "MRN-004-c1b0ddae"
          }
        ],
        "deceasedBoolean": false
      },
      "request": {
        "method": "POST",
        "url": "Patient"
      }
    },
    {
      "fullUrl": "urn:uuid:38192735-2095-4128-9b4b-9c2318e66e2b",
      "resource": {
        "resourceType": "Patient",
        "active": true,
        "gender": "other",
        "birthDate": "2000-03-01",
        "name": [
          {
            "use": "official",
            "family": "Garcia-c1b0ddae",
            "given": [
              "Alex",
              "M"
            ]
          }
        ],
        "identifier": [
          {
            "system": "http://example.com/mrn",
            "value": "MRN-005-c1b0ddae"
          }
        ],
        "telecom": [
          {
            "system": "email",
            "value": "alex.garcia-c1b0ddae@example.com"
          }
        ]
      },
      "request": {
        "method": "POST",
        "url": "Patient"
      }
    },
    {
      "fullUrl": "urn:uuid:5de61999-ac7c-459b-a0c4-db8a6d1a316c",
      "resource": {
        "resourceType": "Patient",
        "active": true,
        "gender": "male",
        "birthDate": "1960-12-25",
        "name": [
          {
            "use": "official",
            "family": "Wilson-c1b0ddae",
            "given": [
              "George"
            ]
          }
        ],
        "identifier": [
          {
            "system": "http://example.com/mrn",
            "value": "MRN-006-c1b0ddae"
          }
        ],
        "deceasedDateTime": "2025-01-15T10:30:00Z"
      },
      "request": {
        "method": "POST",
        "url": "Patient"
      }
    },
    {
      "fullUrl": "urn:uuid:ab703083-37a4-4f63-ac52-c8a216fc79e0",
      "resource": {
        "resourceType": "Patient",
        "active": true,
        "gender": "female",
        "birthDate": "1995-07-04",
        "name": [
          {
            "use": "official",
            "family": "Martinez-c1b0ddae",
            "given": [
              "Sofia",
              "Isabella"
            ]
          },
          {
            "use": "maiden",
            "family": "Lopez-c1b0ddae"
          }
        ],
        "identifier": [
          {
            "system": "http://example.com/mrn",
            "value": "MRN-007-c1b0ddae"
          },
          {
            "system": "http://example.com/passport",
            "value": "PP-007-c1b0ddae"
          }
        ],
        "telecom": [
          {
            "system": "phone",
            "value": "555-1007",
            "use": "mobile"
          },
          {
            "system": "phone",
            "value": "555-1008",
            "use": "home"
          },
          {
            "system": "email",
            "value": "sofia-c1b0ddae@example.com"
          }
        ],
        "address": [
          {
            "use": "home",
            "line": [
              "1000 Maple Dr"
            ],
            "city": "Capital City",
            "state": "CA",
            "postalCode": "90001",
            "country": "US"
          },
          {
            "use": "temp",
            "city": "TempCity",
            "state": "NY"
          }
        ],
        "contact": [
          {
            "relationship": [
              {
                "coding": [
                  {
                    "system": "http://terminology.hl7.org/CodeSystem/v2-0131",
                    "code": "N"
                  }
                ]
              }
            ],
            "name": {
              "family": "EmergencyContact-c1b0ddae",
              "given": [
                "Carlos"
              ]
            },
            "telecom": [
              {
                "system": "phone",
                "value": "555-9999"
              }
            ]
          }
        ]
      },
      "request": {
        "method": "POST",
        "url": "Patient"
      }
    },
    {
      "fullUrl": "urn:uuid:7fc36cdd-191a-43db-8476-7ba810ed816b",
      "resource": {
        "resourceType": "Encounter",
        "status": "finished",
        "class": {
          "system": "http://terminology.hl7.org/CodeSystem/v3-ActCode",
          "code": "AMB",
          "display": "Ambulatory-c1b0ddae"
        },
        "subject": {
          "reference": "urn:uuid:2b3ca883-8de7-4a48-9aa3-383c6c3c78ad"
        },
        "serviceProvider": {
          "reference": "urn:uuid:77e26246-3d12-4607-9e74-105963753c01"
        },
        "participant": [
          {
            "individual": {
              "reference": "urn:uuid:42fbab04-1dad-4113-85ee-a0f4c532f553"
            }
          }
        ],
        "period": {
          "start": "2025-01-10T08:00:00Z",
          "end": "2025-01-10T09:00:00Z"
        },
        "type": [
          {
            "coding": [
              {
                "system": "http://snomed.info/sct",
                "code": "308335008",
                "display": "OPD-c1b0ddae"
              }
            ]
          }
        ]
      },
      "request": {
        "method": "POST",
        "url": "Encounter"
      }
    },
    {
      "fullUrl": "urn:uuid:6b14c3e7-aad1-4d6f-adcb-8380a2832ed9",
      "resource": {
        "resourceType": "Encounter",
        "status": "finished",
        "class": {
          "system": "http://terminology.hl7.org/CodeSystem/v3-ActCode",
          "code": "IMP"
        },
        "subject": {
          "reference": "urn:uuid:2b3ca883-8de7-4a48-9aa3-383c6c3c78ad"
        },
        "serviceProvider": {
          "reference": "urn:uuid:77e26246-3d12-4607-9e74-105963753c01"
        },
        "period": {
          "start": "2025-02-01T10:00:00Z",
          "end": "2025-02-05T14:00:00Z"
        }
      },
      "request": {
        "method": "POST",
        "url": "Encounter"
      }
    },
    {
      "fullUrl": "urn:uuid:0f798949-b169-47e6-86d7-0ee041321bfd",
      "resource": {
        "resourceType": "Encounter",
        "status": "finished",
        "class": {
          "system": "http://terminology.hl7.org/CodeSystem/v3-ActCode",
          "code": "AMB"
        },
        "subject": {
          "reference": "urn:uuid:e0c3bf93-9e1b-4dfa-8292-745428a05849"
        },
        "serviceProvider": {
          "reference": "urn:uuid:77e26246-3d12-4607-9e74-105963753c01"
        },
        "participant": [
          {
            "individual": {
              "reference": "urn:uuid:74ae901e-38ad-4e16-94ea-89348aca9785"
            }
          }
        ],
        "period": {
          "start": "2025-03-15T14:00:00Z"
        }
      },
      "request": {
        "method": "POST",
        "url": "Encounter"
      }
    },
    {
      "fullUrl": "urn:uuid:55b889af-bbd5-421f-b06d-e418d3c32116",
      "resource": {
        "resourceType": "Encounter",
        "status": "in-progress",
        "class": {
          "system": "http://terminology.hl7.org/CodeSystem/v3-ActCode",
          "code": "EMER"
        },
        "subject": {
          "reference": "urn:uuid:a2cb3881-ca7e-4286-a5d4-9b57654d4603"
        },
        "serviceProvider": {
          "reference": "urn:uuid:77e26246-3d12-4607-9e74-105963753c01"
        },
        "period": {
          "start": "2026-02-25T10:00:00Z"
        }
      },
      "request": {
        "method": "POST",
        "url": "Encounter"
      }
    },
    {
      "fullUrl": "urn:uuid:ca277c4f-70a7-43c1-bd73-2b27c433456c",
      "resource": {
        "resourceType": "Encounter",
        "status": "planned",
        "class": {
          "system": "http://terminology.hl7.org/CodeSystem/v3-ActCode",
          "code": "AMB"
        },
        "subject": {
          "reference": "urn:uuid:0cc822bf-c32e-4290-9dac-601a14c54895"
        },
        "period": {
          "start": "2026-03-01T09:00:00Z"
        }
      },
      "request": {
        "method": "POST",
        "url": "Encounter"
      }
    },
    {
      "fullUrl": "urn:uuid:05b41473-aefe-4a58-a175-52c7ffac4022",
      "resource": {
        "resourceType": "Encounter",
        "status": "finished",
        "class": {
          "system": "http://terminology.hl7.org/CodeSystem/v3-ActCode",
          "code": "AMB"
        },
        "subject": {
          "reference": "urn:uuid:ab703083-37a4-4f63-ac52-c8a216fc79e0"
        },
        "serviceProvider": {
          "reference": "urn:uuid:b210834f-9052-4c48-b51e-169148becd82"
        },
        "participant": [
          {
            "individual": {
              "reference": "urn:uuid:6dc376dd-9f9a-436d-936e-548c6e7d41e1"
            }
          }
        ],
        "period": {
          "start": "2025-06-01T11:00:00Z",
          "end": "2025-06-01T12:00:00Z"
        }
      },
      "request": {
        "method": "POST",
        "url": "Encounter"
      }
    },
    {
      "fullUrl": "urn:uuid:7dc17137-cb2a-412e-8e88-f19eadbbb330",
      "resource": {
        "resourceType": "Condition",
        "clinicalStatus": {
          "coding": [
            {
              "system": "http://terminology.hl7.org/CodeSystem/condition-clinical",
              "code": "active"
            }
          ]
        },
        "verificationStatus": {
          "coding": [
            {
              "system": "http://terminology.hl7.org/CodeSystem/condition-ver-status",
              "code": "confirmed"
            }
          ]
        },
        "code": {
          "coding": [
            {
              "system": "http://snomed.info/sct",
              "code": "44054006",
              "display": "Type2DM-c1b0ddae"
            }
          ]
        },
        "subject": {
          "reference": "urn:uuid:2b3ca883-8de7-4a48-9aa3-383c6c3c78ad"
        },
        "encounter": {
          "reference": "urn:uuid:7fc36cdd-191a-43db-8476-7ba810ed816b"
        },
        "onsetDateTime": "2020-01-01"
      },
      "request": {
        "method": "POST",
        "url": "Condition"
      }
    },
    {
      "fullUrl": "urn:uuid:2b0d0fe3-1ff4-4943-8518-6e7cdcafe6db",
      "resource": {
        "resourceType": "Condition",
        "clinicalStatus": {
          "coding": [
            {
              "system": "http://terminology.hl7.org/CodeSystem/condition-clinical",
              "code": "active"
            }
          ]
        },
        "verificationStatus": {
          "coding": [
            {
              "system": "http://terminology.hl7.org/CodeSystem/condition-ver-status",
              "code": "confirmed"
            }
          ]
        },
        "code": {
          "coding": [
            {
              "system": "http://snomed.info/sct",
              "code": "38341003",
              "display": "Hypertension-c1b0ddae"
            }
          ]
        },
        "subject": {
          "reference": "urn:uuid:2b3ca883-8de7-4a48-9aa3-383c6c3c78ad"
        },
        "onsetDateTime": "2018-06-15"
      },
      "request": {
        "method": "POST",
        "url": "Condition"
      }
    },
    {
      "fullUrl": "urn:uuid:e320fe64-79d5-4d89-9eab-52a21edf5c70",
      "resource": {
        "resourceType": "Condition",
        "clinicalStatus": {
          "coding": [
            {
              "system": "http://terminology.hl7.org/CodeSystem/condition-clinical",
              "code": "resolved"
            }
          ]
        },
        "code": {
          "coding": [
            {
              "system": "http://snomed.info/sct",
              "code": "195662009",
              "display": "Pneumonia-c1b0ddae"
            }
          ]
        },
        "subject": {
          "reference": "urn:uuid:e0c3bf93-9e1b-4dfa-8292-745428a05849"
        },
        "encounter": {
          "reference": "urn:uuid:0f798949-b169-47e6-86d7-0ee041321bfd"
        },
        "onsetDateTime": "2025-03-10",
        "abatementDateTime": "2025-03-25"
      },
      "request": {
        "method": "POST",
        "url": "Condition"
      }
    },
    {
      "fullUrl": "urn:uuid:77a52cd2-1883-4b18-a0b1-f36a1e08e000",
      "resource": {
        "resourceType": "Condition",
        "clinicalStatus": {
          "coding": [
            {
              "system": "http://terminology.hl7.org/CodeSystem/condition-clinical",
              "code": "active"
            }
          ]
        },
        "code": {
          "coding": [
            {
              "system": "http://snomed.info/sct",
              "code": "73211009",
              "display": "DiabetesI-c1b0ddae"
            }
          ]
        },
        "subject": {
          "reference": "urn:uuid:a2cb3881-ca7e-4286-a5d4-9b57654d4603"
        },
        "onsetDateTime": "2010-05-01"
      },
      "request": {
        "method": "POST",
        "url": "Condition"
      }
    },
    {
      "fullUrl": "urn:uuid:e3542cab-bbd9-4e8c-a385-72dfb4103325",
      "resource": {
        "resourceType": "Condition",
        "clinicalStatus": {
          "coding": [
            {
              "system": "http://terminology.hl7.org/CodeSystem/condition-clinical",
              "code": "active"
            }
          ]
        },
        "code": {
          "coding": [
            {
              "system": "http://snomed.info/sct",
              "code": "195967001",
              "display": "Asthma-c1b0ddae"
            }
          ]
        },
        "subject": {
          "reference": "urn:uuid:ab703083-37a4-4f63-ac52-c8a216fc79e0"
        },
        "encounter": {
          "reference": "urn:uuid:05b41473-aefe-4a58-a175-52c7ffac4022"
        },
        "onsetDateTime": "2015-08-20"
      },
      "request": {
        "method": "POST",
        "url": "Condition"
      }
    },
    {
      "fullUrl": "urn:uuid:543011a0-742b-4c64-b2ba-d5db9c623a0d",
      "resource": {
        "resourceType": "Observation",
        "status": "final",
        "code": {
          "coding": [
            {
              "system": "http://loinc.org",
              "code": "29463-7",
              "display": "BodyWeight-c1b0ddae"
            }
          ]
        },
        "subject": {
          "reference": "urn:uuid:2b3ca883-8de7-4a48-9aa3-383c6c3c78ad"
        },
        "encounter": {
          "reference": "urn:uuid:7fc36cdd-191a-43db-8476-7ba810ed816b"
        },
        "valueQuantity": {
          "value": 75.5,
          "unit": "kg",
          "system": "http://unitsofmeasure.org",
          "code": "kg"
        },
        "effectiveDateTime": "2025-01-10T08:30:00Z",
        "category": [
          {
            "coding": [
              {
                "system": "http://terminology.hl7.org/CodeSystem/observation-category",
                "code": "vital-signs"
              }
            ]
          }
        ]
      },
      "request": {
        "method": "POST",
        "url": "Observation"
      }
    },
    {
      "fullUrl": "urn:uuid:90ab35af-0ca3-4e11-b70c-21420f9a6906",
      "resource": {
        "resourceType": "Observation",
        "status": "final",
        "code": {
          "coding": [
            {
              "system": "http://loinc.org",
              "code": "8867-4",
              "display": "HeartRate-c1b0ddae"
            }
          ]
        },
        "subject": {
          "reference": "urn:uuid:2b3ca883-8de7-4a48-9aa3-383c6c3c78ad"
        },
        "encounter": {
          "reference": "urn:uuid:7fc36cdd-191a-43db-8476-7ba810ed816b"
        },
        "valueQuantity": {
          "value": 72,
          "unit": "/min",
          "system": "http://unitsofmeasure.org",
          "code": "/min"
        },
        "effectiveDateTime": "2025-01-10T08:30:00Z"
      },
      "request": {
        "method": "POST",
        "url": "Observation"
      }
    },
    {
      "fullUrl": "urn:uuid:31565fd8-34c6-4aeb-8fbd-2f354818be63",
      "resource": {
        "resourceType": "Observation",
        "status": "final",
        "code": {
          "coding": [
            {
              "system": "http://loinc.org",
              "code": "85354-9",
              "display": "BP-c1b0ddae"
            }
          ]
        },
        "subject": {
          "reference": "urn:uuid:2b3ca883-8de7-4a48-9aa3-383c6c3c78ad"
        },
        "encounter": {
          "reference": "urn:uuid:6b14c3e7-aad1-4d6f-adcb-8380a2832ed9"
        },
        "component": [
          {
            "code": {
              "coding": [
                {
                  "system": "http://loinc.org",
                  "code": "8480-6"
                }
              ]
            },
            "valueQuantity": {
              "value": 120,
              "unit": "mmHg"
            }
          },
          {
            "code": {
              "coding": [
                {
                  "system": "http://loinc.org",
                  "code": "8462-4"
                }
              ]
            },
            "valueQuantity": {
              "value": 80,
              "unit": "mmHg"
            }
          }
        ],
        "effectiveDateTime": "2025-02-01T10:30:00Z"
      },
      "request": {
        "method": "POST",
        "url": "Observation"
      }
    },
    {
      "fullUrl": "urn:uuid:7ed65fc5-141e-496e-8873-7b2195dee9c3",
      "resource": {
        "resourceType": "Observation",
        "status": "final",
        "code": {
          "coding": [
            {
              "system": "http://loinc.org",
              "code": "2339-0",
              "display": "Glucose-c1b0ddae"
            }
          ]
        },
        "subject": {
          "reference": "urn:uuid:e0c3bf93-9e1b-4dfa-8292-745428a05849"
        },
        "encounter": {
          "reference": "urn:uuid:0f798949-b169-47e6-86d7-0ee041321bfd"
        },
        "valueQuantity": {
          "value": 95,
          "unit": "mg/dL"
        },
        "effectiveDateTime": "2025-03-15T14:30:00Z",
        "interpretation": [
          {
            "coding": [
              {
                "system": "http://terminology.hl7.org/CodeSystem/v3-ObservationInterpretation",
                "code": "N",
                "display": "Normal"
              }
            ]
          }
        ]
      },
      "request": {
        "method": "POST",
        "url": "Observation"
      }
    },
    {
      "fullUrl": "urn:uuid:e99f5b04-2679-445a-b3b5-4f589b615c27",
      "resource": {
        "resourceType": "Observation",
        "status": "final",
        "code": {
          "coding": [
            {
              "system": "http://loinc.org",
              "code": "718-7",
              "display": "Hemoglobin-c1b0ddae"
            }
          ]
        },
        "subject": {
          "reference": "urn:uuid:a2cb3881-ca7e-4286-a5d4-9b57654d4603"
        },
        "valueQuantity": {
          "value": 14.2,
          "unit": "g/dL"
        },
        "effectiveDateTime": "2025-04-01"
      },
      "request": {
        "method": "POST",
        "url": "Observation"
      }
    },
    {
      "fullUrl": "urn:uuid:a9928a31-6210-4f05-96e5-bc607ff99fea",
      "resource": {
        "resourceType": "Observation",
        "status": "preliminary",
        "code": {
          "coding": [
            {
              "system": "http://loinc.org",
              "code": "6690-2",
              "display": "WBC-c1b0ddae"
            }
          ]
        },
        "subject": {
          "reference": "urn:uuid:a2cb3881-ca7e-4286-a5d4-9b57654d4603"
        },
        "encounter": {
          "reference": "urn:uuid:55b889af-bbd5-421f-b06d-e418d3c32116"
        },
        "valueQuantity": {
          "value": 8500,
          "unit": "/uL"
        },
        "effectiveDateTime": "2026-02-25T10:30:00Z"
      },
      "request": {
        "method": "POST",
        "url": "Observation"
      }
    },
    {
      "fullUrl": "urn:uuid:b1762920-1d48-4bea-9465-ee7d4435b6ff",
      "resource": {
        "resourceType": "Observation",
        "status": "final",
        "code": {
          "coding": [
            {
              "system": "http://loinc.org",
              "code": "39156-5",
              "display": "BMI-c1b0ddae"
            }
          ]
        },
        "subject": {
          "reference": "urn:uuid:ab703083-37a4-4f63-ac52-c8a216fc79e0"
        },
        "encounter": {
          "reference": "urn:uuid:05b41473-aefe-4a58-a175-52c7ffac4022"
        },
        "valueQuantity": {
          "value": 22.1,
          "unit": "kg/m2"
        },
        "effectiveDateTime": "2025-06-01T11:30:00Z"
      },
      "request": {
        "method": "POST",
        "url": "Observation"
      }
    },
    {
      "fullUrl": "urn:uuid:2cbd2d70-70f8-4ea7-a2b2-93dd939dc06a",
      "resource": {
        "resourceType": "Observation",
        "status": "final",
        "code": {
          "coding": [
            {
              "system": "http://loinc.org",
              "code": "8310-5",
              "display": "BodyTemp-c1b0ddae"
            }
          ]
        },
        "subject": {
          "reference": "urn:uuid:ab703083-37a4-4f63-ac52-c8a216fc79e0"
        },
        "valueQuantity": {
          "value": 37.2,
          "unit": "Cel"
        },
        "effectiveDateTime": "2025-06-01T11:35:00Z"
      },
      "request": {
        "method": "POST",
        "url": "Observation"
      }
    },
    {
      "fullUrl": "urn:uuid:d44adde4-1562-4edb-8e10-d1ffaafcdbe1",
      "resource": {
        "resourceType": "DiagnosticReport",
        "status": "final",
        "code": {
          "coding": [
            {
              "system": "http://loinc.org",
              "code": "58410-2",
              "display": "CBC-c1b0ddae"
            }
          ]
        },
        "subject": {
          "reference": "urn:uuid:2b3ca883-8de7-4a48-9aa3-383c6c3c78ad"
        },
        "encounter": {
          "reference": "urn:uuid:7fc36cdd-191a-43db-8476-7ba810ed816b"
        },
        "result": [
          {
            "reference": "urn:uuid:543011a0-742b-4c64-b2ba-d5db9c623a0d"
          },
          {
            "reference": "urn:uuid:90ab35af-0ca3-4e11-b70c-21420f9a6906"
          }
        ],
        "effectiveDateTime": "2025-01-10T09:00:00Z",
        "issued": "2025-01-10T10:00:00Z"
      },
      "request": {
        "method": "POST",
        "url": "DiagnosticReport"
      }
    },
    {
      "fullUrl": "urn:uuid:17181121-ef9c-49d7-b5c0-8d756bd94928",
      "resource": {
        "resourceType": "DiagnosticReport",
        "status": "final",
        "code": {
          "coding": [
            {
              "system": "http://loinc.org",
              "code": "24323-8",
              "display": "CMP-c1b0ddae"
            }
          ]
        },
        "subject": {
          "reference": "urn:uuid:2b3ca883-8de7-4a48-9aa3-383c6c3c78ad"
        },
        "encounter": {
          "reference": "urn:uuid:6b14c3e7-aad1-4d6f-adcb-8380a2832ed9"
        },
        "result": [
          {
            "reference": "urn:uuid:31565fd8-34c6-4aeb-8fbd-2f354818be63"
          }
        ],
        "effectiveDateTime": "2025-02-01T11:00:00Z"
      },
      "request": {
        "method": "POST",
        "url": "DiagnosticReport"
      }
    },
    {
      "fullUrl": "urn:uuid:20cd8c60-52cc-4466-aced-63e65844f5e7",
      "resource": {
        "resourceType": "DiagnosticReport",
        "status": "final",
        "code": {
          "coding": [
            {
              "system": "http://loinc.org",
              "code": "2339-0",
              "display": "GlucoseReport-c1b0ddae"
            }
          ]
        },
        "subject": {
          "reference": "urn:uuid:e0c3bf93-9e1b-4dfa-8292-745428a05849"
        },
        "result": [
          {
            "reference": "urn:uuid:7ed65fc5-141e-496e-8873-7b2195dee9c3"
          }
        ],
        "effectiveDateTime": "2025-03-15T15:00:00Z"
      },
      "request": {
        "method": "POST",
        "url": "DiagnosticReport"
      }
    },
    {
      "fullUrl": "urn:uuid:61832418-e321-4df6-8235-928cb50b7147",
      "resource": {
        "resourceType": "DiagnosticReport",
        "status": "preliminary",
        "code": {
          "coding": [
            {
              "system": "http://loinc.org",
              "code": "58410-2",
              "display": "CBC2-c1b0ddae"
            }
          ]
        },
        "subject": {
          "reference": "urn:uuid:a2cb3881-ca7e-4286-a5d4-9b57654d4603"
        },
        "result": [
          {
            "reference": "urn:uuid:e99f5b04-2679-445a-b3b5-4f589b615c27"
          },
          {
            "reference": "urn:uuid:a9928a31-6210-4f05-96e5-bc607ff99fea"
          }
        ],
        "effectiveDateTime": "2026-02-25T11:00:00Z"
      },
      "request": {
        "method": "POST",
        "url": "DiagnosticReport"
      }
    },
    {
      "fullUrl": "urn:uuid:883be4fe-de0c-4389-be4d-7111dcd648d3",
      "resource": {
        "resourceType": "DiagnosticReport",
        "status": "final",
        "code": {
          "coding": [
            {
              "system": "http://loinc.org",
              "code": "55399-0",
              "display": "Vitals-c1b0ddae"
            }
          ]
        },
        "subject": {
          "reference": "urn:uuid:ab703083-37a4-4f63-ac52-c8a216fc79e0"
        },
        "encounter": {
          "reference": "urn:uuid:05b41473-aefe-4a58-a175-52c7ffac4022"
        },
        "result": [
          {
            "reference": "urn:uuid:b1762920-1d48-4bea-9465-ee7d4435b6ff"
          },
          {
            "reference": "urn:uuid:2cbd2d70-70f8-4ea7-a2b2-93dd939dc06a"
          }
        ],
        "effectiveDateTime": "2025-06-01T12:00:00Z"
      },
      "request": {
        "method": "POST",
        "url": "DiagnosticReport"
      }
    },
    {
      "fullUrl": "urn:uuid:0b4cba81-6403-4c46-b4ed-a8a03ddc9c7f",
      "resource": {
        "resourceType": "MedicationRequest",
        "status": "active",
        "intent": "order",
        "medicationReference": {
          "reference": "urn:uuid:098fb86e-ee17-4208-bb59-2ff0b0902aa8"
        },
        "subject": {
          "reference": "urn:uuid:2b3ca883-8de7-4a48-9aa3-383c6c3c78ad"
        },
        "encounter": {
          "reference": "urn:uuid:7fc36cdd-191a-43db-8476-7ba810ed816b"
        },
        "requester": {
          "reference": "urn:uuid:42fbab04-1dad-4113-85ee-a0f4c532f553"
        },
        "authoredOn": "2025-01-10",
        "dosageInstruction": [
          {
            "text": "Take 500mg PRN-c1b0ddae",
            "timing": {
              "repeat": {
                "frequency": 3,
                "period": 1,
                "periodUnit": "d"
              }
            }
          }
        ]
      },
      "request": {
        "method": "POST",
        "url": "MedicationRequest"
      }
    },
    {
      "fullUrl": "urn:uuid:6ec5aa34-d3e4-4bba-b262-0f59582c6706",
      "resource": {
        "resourceType": "MedicationRequest",
        "status": "active",
        "intent": "order",
        "medicationReference": {
          "reference": "urn:uuid:ad07f080-9a80-4b81-b448-581aeb9d985a"
        },
        "subject": {
          "reference": "urn:uuid:2b3ca883-8de7-4a48-9aa3-383c6c3c78ad"
        },
        "requester": {
          "reference": "urn:uuid:42fbab04-1dad-4113-85ee-a0f4c532f553"
        },
        "authoredOn": "2025-02-01",
        "dosageInstruction": [
          {
            "text": "250mg TID-c1b0ddae"
          }
        ]
      },
      "request": {
        "method": "POST",
        "url": "MedicationRequest"
      }
    },
    {
      "fullUrl": "urn:uuid:f366d11d-ef71-4b2d-bd82-3c5843820037",
      "resource": {
        "resourceType": "MedicationRequest",
        "status": "active",
        "intent": "order",
        "medicationReference": {
          "reference": "urn:uuid:e7f3c674-9a5c-4fad-90a7-4919f7a0f040"
        },
        "subject": {
          "reference": "urn:uuid:e0c3bf93-9e1b-4dfa-8292-745428a05849"
        },
        "requester": {
          "reference": "urn:uuid:74ae901e-38ad-4e16-94ea-89348aca9785"
        },
        "authoredOn": "2025-03-15"
      },
      "request": {
        "method": "POST",
        "url": "MedicationRequest"
      }
    },
    {
      "fullUrl": "urn:uuid:9c0820e2-d96d-4517-b7ac-327f438a1cf8",
      "resource": {
        "resourceType": "MedicationRequest",
        "status": "stopped",
        "intent": "order",
        "medicationReference": {
          "reference": "urn:uuid:9b9cbc47-d9a3-4d24-8f88-19a82fb5eee8"
        },
        "subject": {
          "reference": "urn:uuid:a2cb3881-ca7e-4286-a5d4-9b57654d4603"
        },
        "requester": {
          "reference": "urn:uuid:94c10698-41a6-4a93-8d12-da4bd1dbfff9"
        },
        "authoredOn": "2025-04-01"
      },
      "request": {
        "method": "POST",
        "url": "MedicationRequest"
      }
    },
    {
      "fullUrl": "urn:uuid:f69a0b4f-225d-4e69-8d0a-d561d1a7b2bc",
      "resource": {
        "resourceType": "MedicationRequest",
        "status": "active",
        "intent": "plan",
        "medicationReference": {
          "reference": "urn:uuid:b92e6ac9-39d2-404f-823c-ff7f301434a0"
        },
        "subject": {
          "reference": "urn:uuid:ab703083-37a4-4f63-ac52-c8a216fc79e0"
        },
        "encounter": {
          "reference": "urn:uuid:05b41473-aefe-4a58-a175-52c7ffac4022"
        },
        "requester": {
          "reference": "urn:uuid:6dc376dd-9f9a-436d-936e-548c6e7d41e1"
        },
        "authoredOn": "2025-06-01"
      },
      "request": {
        "method": "POST",
        "url": "MedicationRequest"
      }
    },
    {
      "fullUrl": "urn:uuid:098fb86e-ee17-4208-bb59-2ff0b0902aa8",
      "resource": {
        "resourceType": "Medication",
        "code": {
          "coding": [
            {
              "system": "http://www.nlm.nih.gov/research/umls/rxnorm",
              "code": "1049502",
              "display": "Acetaminophen-c1b0ddae"
            }
          ]
        },
        "status": "active"
      },
      "request": {
        "method": "POST",
        "url": "Medication"
      }
    },
    {
      "fullUrl": "urn:uuid:ad07f080-9a80-4b81-b448-581aeb9d985a",
      "resource": {
        "resourceType": "Medication",
        "code": {
          "coding": [
            {
              "system": "http://www.nlm.nih.gov/research/umls/rxnorm",
              "code": "197361",
              "display": "Amoxicillin-c1b0ddae"
            }
          ]
        },
        "status": "active",
        "manufacturer": {
          "reference": "urn:uuid:ec836858-4c90-4a1d-9ed0-1fa64157505f"
        }
      },
      "request": {
        "method": "POST",
        "url": "Medication"
      }
    },
    {
      "fullUrl": "urn:uuid:e7f3c674-9a5c-4fad-90a7-4919f7a0f040",
      "resource": {
        "resourceType": "Medication",
        "code": {
          "coding": [
            {
              "system": "http://www.nlm.nih.gov/research/umls/rxnorm",
              "code": "310965",
              "display": "Lisinopril-c1b0ddae"
            }
          ]
        },
        "status": "active"
      },
      "request": {
        "method": "POST",
        "url": "Medication"
      }
    },
    {
      "fullUrl": "urn:uuid:9b9cbc47-d9a3-4d24-8f88-19a82fb5eee8",
      "resource": {
        "resourceType": "Medication",
        "code": {
          "coding": [
            {
              "system": "http://www.nlm.nih.gov/research/umls/rxnorm",
              "code": "860975",
              "display": "Metformin-c1b0ddae"
            }
          ]
        },
        "status": "active"
      },
      "request": {
        "method": "POST",
        "url": "Medication"
      }
    },
    {
      "fullUrl": "urn:uuid:b92e6ac9-39d2-404f-823c-ff7f301434a0",
      "resource": {
        "resourceType": "Medication",
        "code": {
          "coding": [
            {
              "system": "http://www.nlm.nih.gov/research/umls/rxnorm",
              "code": "198440",
              "display": "Omeprazole-c1b0ddae"
            }
          ]
        },
        "status": "inactive"
      },
      "request": {
        "method": "POST",
        "url": "Medication"
      }
    },
    {
      "fullUrl": "urn:uuid:6822996c-06ab-4eb1-b44c-9e248e227f8e",
      "resource": {
        "resourceType": "AllergyIntolerance",
        "clinicalStatus": {
          "coding": [
            {
              "system": "http://terminology.hl7.org/CodeSystem/allergyintolerance-clinical",
              "code": "active"
            }
          ]
        },
        "verificationStatus": {
          "coding": [
            {
              "system": "http://terminology.hl7.org/CodeSystem/allergyintolerance-verification",
              "code": "confirmed"
            }
          ]
        },
        "type": "allergy",
        "category": [
          "medication"
        ],
        "code": {
          "coding": [
            {
              "system": "http://snomed.info/sct",
              "code": "387458008",
              "display": "Aspirin-c1b0ddae"
            }
          ]
        },
        "patient": {
          "reference": "urn:uuid:2b3ca883-8de7-4a48-9aa3-383c6c3c78ad"
        },
        "onsetDateTime": "2015-01-01",
        "reaction": [
          {
            "manifestation": [
              {
                "coding": [
                  {
                    "system": "http://snomed.info/sct",
                    "code": "271807003",
                    "display": "Rash"
                  }
                ]
              }
            ],
            "severity": "moderate"
          }
        ]
      },
      "request": {
        "method": "POST",
        "url": "AllergyIntolerance"
      }
    },
    {
      "fullUrl": "urn:uuid:ccdd5558-102c-45ad-a80d-2678133b5ec9",
      "resource": {
        "resourceType": "AllergyIntolerance",
        "clinicalStatus": {
          "coding": [
            {
              "system": "http://terminology.hl7.org/CodeSystem/allergyintolerance-clinical",
              "code": "active"
            }
          ]
        },
        "type": "allergy",
        "category": [
          "food"
        ],
        "code": {
          "coding": [
            {
              "system": "http://snomed.info/sct",
              "code": "91935009",
              "display": "Peanut-c1b0ddae"
            }
          ]
        },
        "patient": {
          "reference": "urn:uuid:2b3ca883-8de7-4a48-9aa3-383c6c3c78ad"
        }
      },
      "request": {
        "method": "POST",
        "url": "AllergyIntolerance"
      }
    },
    {
      "fullUrl": "urn:uuid:94857203-a41a-4319-b6b1-bc2d2286624b",
      "resource": {
        "resourceType": "AllergyIntolerance",
        "clinicalStatus": {
          "coding": [
            {
              "system": "http://terminology.hl7.org/CodeSystem/allergyintolerance-clinical",
              "code": "active"
            }
          ]
        },
        "type": "intolerance",
        "category": [
          "medication"
        ],
        "code": {
          "coding": [
            {
              "system": "http://snomed.info/sct",
              "code": "372687004",
              "display": "Penicillin-c1b0ddae"
            }
          ]
        },
        "patient": {
          "reference": "urn:uuid:e0c3bf93-9e1b-4dfa-8292-745428a05849"
        }
      },
      "request": {
        "method": "POST",
        "url": "AllergyIntolerance"
      }
    },
    {
      "fullUrl": "urn:uuid:6607d2f9-b922-4282-ab9c-0486d95658f8",
      "resource": {
        "resourceType": "AllergyIntolerance",
        "clinicalStatus": {
          "coding": [
            {
              "system": "http://terminology.hl7.org/CodeSystem/allergyintolerance-clinical",
              "code": "resolved"
            }
          ]
        },
        "code": {
          "coding": [
            {
              "system": "http://snomed.info/sct",
              "code": "264295007",
              "display": "Latex-c1b0ddae"
            }
          ]
        },
        "patient": {
          "reference": "urn:uuid:a2cb3881-ca7e-4286-a5d4-9b57654d4603"
        }
      },
      "request": {
        "method": "POST",
        "url": "AllergyIntolerance"
      }
    },
    {
      "fullUrl": "urn:uuid:3100b7c9-3ea5-46b3-9edc-23b8ce708d63",
      "resource": {
        "resourceType": "AllergyIntolerance",
        "clinicalStatus": {
          "coding": [
            {
              "system": "http://terminology.hl7.org/CodeSystem/allergyintolerance-clinical",
              "code": "active"
            }
          ]
        },
        "type": "allergy",
        "category": [
          "environment"
        ],
        "code": {
          "coding": [
            {
              "system": "http://snomed.info/sct",
              "code": "256259004",
              "display": "Pollen-c1b0ddae"
            }
          ]
        },
        "patient": {
          "reference": "urn:uuid:ab703083-37a4-4f63-ac52-c8a216fc79e0"
        }
      },
      "request": {
        "method": "POST",
        "url": "AllergyIntolerance"
      }
    },
    {
      "fullUrl": "urn:uuid:741933df-8a55-4737-ae51-ddec9a7ce822",
      "resource": {
        "resourceType": "Procedure",
        "status": "completed",
        "code": {
          "coding": [
            {
              "system": "http://snomed.info/sct",
              "code": "80146002",
              "display": "Appendectomy-c1b0ddae"
            }
          ]
        },
        "subject": {
          "reference": "urn:uuid:2b3ca883-8de7-4a48-9aa3-383c6c3c78ad"
        },
        "encounter": {
          "reference": "urn:uuid:6b14c3e7-aad1-4d6f-adcb-8380a2832ed9"
        },
        "performedDateTime": "2025-02-03T14:00:00Z",
        "performer": [
          {
            "actor": {
              "reference": "urn:uuid:94c10698-41a6-4a93-8d12-da4bd1dbfff9"
            }
          }
        ]
      },
      "request": {
        "method": "POST",
        "url": "Procedure"
      }
    },
    {
      "fullUrl": "urn:uuid:4b609c31-14a7-4a35-8daa-bf1645d05cd9",
      "resource": {
        "resourceType": "Procedure",
        "status": "completed",
        "code": {
          "coding": [
            {
              "system": "http://snomed.info/sct",
              "code": "232717009",
              "display": "Coronography-c1b0ddae"
            }
          ]
        },
        "subject": {
          "reference": "urn:uuid:2b3ca883-8de7-4a48-9aa3-383c6c3c78ad"
        },
        "performedPeriod": {
          "start": "2025-02-04T08:00:00Z",
          "end": "2025-02-04T10:00:00Z"
        }
      },
      "request": {
        "method": "POST",
        "url": "Procedure"
      }
    },
    {
      "fullUrl": "urn:uuid:1e224ce3-46af-4bf1-9b63-e06e9b4a92e9",
      "resource": {
        "resourceType": "Procedure",
        "status": "completed",
        "code": {
          "coding": [
            {
              "system": "http://snomed.info/sct",
              "code": "36969009",
              "display": "BloodDraw-c1b0ddae"
            }
          ]
        },
        "subject": {
          "reference": "urn:uuid:e0c3bf93-9e1b-4dfa-8292-745428a05849"
        },
        "encounter": {
          "reference": "urn:uuid:0f798949-b169-47e6-86d7-0ee041321bfd"
        },
        "performedDateTime": "2025-03-15T14:15:00Z"
      },
      "request": {
        "method": "POST",
        "url": "Procedure"
      }
    },
    {
      "fullUrl": "urn:uuid:089b3c77-1e22-4d21-8a4f-ffc3bb71badb",
      "resource": {
        "resourceType": "Procedure",
        "status": "in-progress",
        "code": {
          "coding": [
            {
              "system": "http://snomed.info/sct",
              "code": "418891003",
              "display": "Dressing-c1b0ddae"
            }
          ]
        },
        "subject": {
          "reference": "urn:uuid:a2cb3881-ca7e-4286-a5d4-9b57654d4603"
        },
        "encounter": {
          "reference": "urn:uuid:55b889af-bbd5-421f-b06d-e418d3c32116"
        },
        "performedDateTime": "2026-02-25T11:00:00Z"
      },
      "request": {
        "method": "POST",
        "url": "Procedure"
      }
    },
    {
      "fullUrl": "urn:uuid:043020c1-d3ff-4626-858f-bd6338186cbf",
      "resource": {
        "resourceType": "Procedure",
        "status": "completed",
        "code": {
          "coding": [
            {
              "system": "http://snomed.info/sct",
              "code": "274025005",
              "display": "EKG-c1b0ddae"
            }
          ]
        },
        "subject": {
          "reference": "urn:uuid:ab703083-37a4-4f63-ac52-c8a216fc79e0"
        },
        "encounter": {
          "reference": "urn:uuid:05b41473-aefe-4a58-a175-52c7ffac4022"
        },
        "performedDateTime": "2025-06-01T11:45:00Z"
      },
      "request": {
        "method": "POST",
        "url": "Procedure"
      }
    },
    {
      "fullUrl": "urn:uuid:ac20a263-e716-4ba1-b5b7-3017e953f31a",
      "resource": {
        "resourceType": "ServiceRequest",
        "status": "active",
        "intent": "order",
        "code": {
          "coding": [
            {
              "system": "http://snomed.info/sct",
              "code": "26604007",
              "display": "FBC-c1b0ddae"
            }
          ]
        },
        "subject": {
          "reference": "urn:uuid:2b3ca883-8de7-4a48-9aa3-383c6c3c78ad"
        },
        "encounter": {
          "reference": "urn:uuid:7fc36cdd-191a-43db-8476-7ba810ed816b"
        },
        "requester": {
          "reference": "urn:uuid:42fbab04-1dad-4113-85ee-a0f4c532f553"
        },
        "authoredOn": "2025-01-10"
      },
      "request": {
        "method": "POST",
        "url": "ServiceRequest"
      }
    },
    {
      "fullUrl": "urn:uuid:ecc79af1-ac87-4c66-ad96-3e8e9ca93747",
      "resource": {
        "resourceType": "ServiceRequest",
        "status": "completed",
        "intent": "order",
        "code": {
          "coding": [
            {
              "system": "http://snomed.info/sct",
              "code": "77477000",
              "display": "CTScan-c1b0ddae"
            }
          ]
        },
        "subject": {
          "reference": "urn:uuid:2b3ca883-8de7-4a48-9aa3-383c6c3c78ad"
        },
        "encounter": {
          "reference": "urn:uuid:6b14c3e7-aad1-4d6f-adcb-8380a2832ed9"
        },
        "authoredOn": "2025-02-01"
      },
      "request": {
        "method": "POST",
        "url": "ServiceRequest"
      }
    },
    {
      "fullUrl": "urn:uuid:e568fe49-35fd-42be-8b72-846b298fe42c",
      "resource": {
        "resourceType": "ServiceRequest",
        "status": "active",
        "intent": "order",
        "code": {
          "coding": [
            {
              "system": "http://snomed.info/sct",
              "code": "104001",
              "display": "Excision-c1b0ddae"
            }
          ]
        },
        "subject": {
          "reference": "urn:uuid:e0c3bf93-9e1b-4dfa-8292-745428a05849"
        },
        "authoredOn": "2025-03-15"
      },
      "request": {
        "method": "POST",
        "url": "ServiceRequest"
      }
    },
    {
      "fullUrl": "urn:uuid:43396aab-b690-42d4-bac1-1d5602e6690e",
      "resource": {
        "resourceType": "ServiceRequest",
        "status": "active",
        "intent": "order",
        "code": {
          "coding": [
            {
              "system": "http://snomed.info/sct",
              "code": "252275004",
              "display": "Imaging-c1b0ddae"
            }
          ]
        },
        "subject": {
          "reference": "urn:uuid:a2cb3881-ca7e-4286-a5d4-9b57654d4603"
        },
        "encounter": {
          "reference": "urn:uuid:55b889af-bbd5-421f-b06d-e418d3c32116"
        },
        "authoredOn": "2026-02-25"
      },
      "request": {
        "method": "POST",
        "url": "ServiceRequest"
      }
    },
    {
      "fullUrl": "urn:uuid:7f8d6e12-f23e-41d5-a526-4a36b4cd7b70",
      "resource": {
        "resourceType": "ServiceRequest",
        "status": "active",
        "intent": "plan",
        "code": {
          "coding": [
            {
              "system": "http://snomed.info/sct",
              "code": "409063005",
              "display": "Counseling-c1b0ddae"
            }
          ]
        },
        "subject": {
          "reference": "urn:uuid:ab703083-37a4-4f63-ac52-c8a216fc79e0"
        },
        "authoredOn": "2025-06-01"
      },
      "request": {
        "method": "POST",
        "url": "ServiceRequest"
      }
    },
    {
      "fullUrl": "urn:uuid:fdf42c00-d8b6-4c37-8964-0ace9000606f",
      "resource": {
        "resourceType": "CarePlan",
        "status": "active",
        "intent": "plan",
        "title": "DM Management-c1b0ddae",
        "subject": {
          "reference": "urn:uuid:2b3ca883-8de7-4a48-9aa3-383c6c3c78ad"
        },
        "encounter": {
          "reference": "urn:uuid:7fc36cdd-191a-43db-8476-7ba810ed816b"
        },
        "addresses": [
          {
            "reference": "urn:uuid:7dc17137-cb2a-412e-8e88-f19eadbbb330"
          }
        ],
        "category": [
          {
            "coding": [
              {
                "system": "http://hl7.org/fhir/us/core/CodeSystem/careplan-category",
                "code": "assess-plan"
              }
            ]
          }
        ]
      },
      "request": {
        "method": "POST",
        "url": "CarePlan"
      }
    },
    {
      "fullUrl": "urn:uuid:b758c5cf-1c5d-4b4f-93b4-29da0c160669",
      "resource": {
        "resourceType": "CarePlan",
        "status": "active",
        "intent": "plan",
        "title": "HTN Management-c1b0ddae",
        "subject": {
          "reference": "urn:uuid:2b3ca883-8de7-4a48-9aa3-383c6c3c78ad"
        },
        "addresses": [
          {
            "reference": "urn:uuid:2b0d0fe3-1ff4-4943-8518-6e7cdcafe6db"
          }
        ]
      },
      "request": {
        "method": "POST",
        "url": "CarePlan"
      }
    },
    {
      "fullUrl": "urn:uuid:1c15bfe7-9498-4260-94ea-6325b32756ad",
      "resource": {
        "resourceType": "CarePlan",
        "status": "completed",
        "intent": "plan",
        "title": "Pneumonia Recovery-c1b0ddae",
        "subject": {
          "reference": "urn:uuid:e0c3bf93-9e1b-4dfa-8292-745428a05849"
        },
        "addresses": [
          {
            "reference": "urn:uuid:e320fe64-79d5-4d89-9eab-52a21edf5c70"
          }
        ]
      },
      "request": {
        "method": "POST",
        "url": "CarePlan"
      }
    },
    {
      "fullUrl": "urn:uuid:b5a83766-0af4-46fe-87aa-efd53526ab36",
      "resource": {
        "resourceType": "CarePlan",
        "status": "active",
        "intent": "plan",
        "title": "DM1 Care-c1b0ddae",
        "subject": {
          "reference": "urn:uuid:a2cb3881-ca7e-4286-a5d4-9b57654d4603"
        },
        "addresses": [
          {
            "reference": "urn:uuid:77a52cd2-1883-4b18-a0b1-f36a1e08e000"
          }
        ]
      },
      "request": {
        "method": "POST",
        "url": "CarePlan"
      }
    },
    {
      "fullUrl": "urn:uuid:57416a7a-4164-43a7-8d0a-02e31688efd5",
      "resource": {
        "resourceType": "CarePlan",
        "status": "active",
        "intent": "plan",
        "title": "Asthma Action-c1b0ddae",
        "subject": {
          "reference": "urn:uuid:ab703083-37a4-4f63-ac52-c8a216fc79e0"
        },
        "encounter": {
          "reference": "urn:uuid:05b41473-aefe-4a58-a175-52c7ffac4022"
        },
        "addresses": [
          {
            "reference": "urn:uuid:e3542cab-bbd9-4e8c-a385-72dfb4103325"
          }
        ]
      },
      "request": {
        "method": "POST",
        "url": "CarePlan"
      }
    },
    {
      "fullUrl": "urn:uuid:0fa31347-008c-4a42-85f5-2f71a9a90f15",
      "resource": {
        "resourceType": "Immunization",
        "status": "completed",
        "vaccineCode": {
          "coding": [
            {
              "system": "http://hl7.org/fhir/sid/cvx",
              "code": "208",
              "display": "COVID19-c1b0ddae"
            }
          ]
        },
        "patient": {
          "reference": "urn:uuid:2b3ca883-8de7-4a48-9aa3-383c6c3c78ad"
        },
        "occurrenceDateTime": "2025-01-15T09:00:00Z",
        "encounter": {
          "reference": "urn:uuid:7fc36cdd-191a-43db-8476-7ba810ed816b"
        }
      },
      "request": {
        "method": "POST",
        "url": "Immunization"
      }
    },
    {
      "fullUrl": "urn:uuid:aea44523-27bb-4800-b98b-d3c370fb38a9",
      "resource": {
        "resourceType": "Immunization",
        "status": "completed",
        "vaccineCode": {
          "coding": [
            {
              "system": "http://hl7.org/fhir/sid/cvx",
              "code": "141",
              "display": "Influenza-c1b0ddae"
            }
          ]
        },
        "patient": {
          "reference": "urn:uuid:2b3ca883-8de7-4a48-9aa3-383c6c3c78ad"
        },
        "occurrenceDateTime": "2025-10-01"
      },
      "request": {
        "method": "POST",
        "url": "Immunization"
      }
    },
    {
      "fullUrl": "urn:uuid:92d6b834-a1dd-4b65-aed0-b0aa82d07d3d",
      "resource": {
        "resourceType": "Immunization",
        "status": "completed",
        "vaccineCode": {
          "coding": [
            {
              "system": "http://hl7.org/fhir/sid/cvx",
              "code": "08",
              "display": "HepB-c1b0ddae"
            }
          ]
        },
        "patient": {
          "reference": "urn:uuid:e0c3bf93-9e1b-4dfa-8292-745428a05849"
        },
        "occurrenceDateTime": "2025-04-01"
      },
      "request": {
        "method": "POST",
        "url": "Immunization"
      }
    },
    {
      "fullUrl": "urn:uuid:df73a0c7-92b0-4ab0-9d81-499888a117c5",
      "resource": {
        "resourceType": "Immunization",
        "status": "not-done",
        "vaccineCode": {
          "coding": [
            {
              "system": "http://hl7.org/fhir/sid/cvx",
              "code": "03",
              "display": "MMR-c1b0ddae"
            }
          ]
        },
        "patient": {
          "reference": "urn:uuid:0cc822bf-c32e-4290-9dac-601a14c54895"
        },
        "occurrenceDateTime": "2025-05-01",
        "statusReason": {
          "coding": [
            {
              "system": "http://terminology.hl7.org/CodeSystem/v3-ActReason",
              "code": "MEDPREC"
            }
          ]
        }
      },
      "request": {
        "method": "POST",
        "url": "Immunization"
      }
    },
    {
      "fullUrl": "urn:uuid:e23c5c00-7d0d-4064-b4ce-18b952610183",
      "resource": {
        "resourceType": "Immunization",
        "status": "completed",
        "vaccineCode": {
          "coding": [
            {
              "system": "http://hl7.org/fhir/sid/cvx",
              "code": "113",
              "display": "Tdap-c1b0ddae"
            }
          ]
        },
        "patient": {
          "reference": "urn:uuid:ab703083-37a4-4f63-ac52-c8a216fc79e0"
        },
        "occurrenceDateTime": "2025-06-01",
        "encounter": {
          "reference": "urn:uuid:05b41473-aefe-4a58-a175-52c7ffac4022"
        }
      },
      "request": {
        "method": "POST",
        "url": "Immunization"
      }
    }
  ]
}